sample,Accel X,Accel Y,Accel Z,Gyro X,Gyro Y,Gyro Z
0,-0.29638671875,0.32421875,-0.874755859375,-0.40458015267175573,0.15267175572519084,-0.7557251908396947
1,-0.29638671875,0.325927734375,-0.888671875,-0.22900763358778625,-0.015267175572519083,-0.7404580152671756
2,-0.296875,0.327880859375,-0.883056640625,-0.2824427480916031,0.10687022900763359,-0.6183206106870229
3,-0.296875,0.322998046875,-0.8857421875,-0.6183206106870229,0.16793893129770993,-0.8091603053435115
4,-0.29931640625,0.328369140625,-0.885498046875,-0.7557251908396947,0.25190839694656486,-0.7099236641221374
5,-0.30078125,0.3310546875,-0.879638671875,-0.5648854961832062,0.12213740458015267,-0.8473282442748091
6,-0.298583984375,0.319580078125,-0.885009765625,-0.5190839694656488,-0.04580152671755725,-0.7786259541984732
7,-0.298095703125,0.322509765625,-0.884033203125,-0.4351145038167939,0.06870229007633588,-0.7022900763358778
8,-0.297119140625,0.3212890625,-0.88720703125,-0.6335877862595419,0.16793893129770993,-0.6412213740458015
9,-0.299072265625,0.3232421875,-0.882568359375,-0.3816793893129771,0.2748091603053435,-0.5572519083969466
10,-0.298095703125,0.32958984375,-0.888671875,-0.4732824427480916,0.12213740458015267,-0.6259541984732825
11,-0.2978515625,0.3271484375,-0.886962890625,-0.11450381679389313,0.08396946564885496,-0.7938931297709924
12,-0.29443359375,0.328125,-0.8818359375,-0.549618320610687,-0.16030534351145037,-0.6793893129770993
13,-0.296142578125,0.326171875,-0.88720703125,-0.45038167938931295,0.16793893129770993,-0.5419847328244275
14,-0.298583984375,0.32763671875,-0.885498046875,-0.3435114503816794,-0.12213740458015267,-0.7251908396946565
15,-0.298095703125,0.324462890625,-0.883056640625,-0.6641221374045801,0.03816793893129771,-0.8625954198473282
16,-0.299072265625,0.328369140625,-0.88232421875,-0.5267175572519084,0.05343511450381679,-0.648854961832061
17,-0.296630859375,0.330078125,-0.8828125,-0.7175572519083969,-0.0916030534351145,-0.9465648854961832
18,-0.298095703125,0.324462890625,-0.880859375,-0.6030534351145038,-0.04580152671755725,-1.0229007633587786
19,-0.294921875,0.325439453125,-0.88330078125,-0.3511450381679389,-0.061068702290076333,-0.6564885496183206
20,-0.298828125,0.326416015625,-0.8818359375,-0.549618320610687,-0.03816793893129771,-0.6412213740458015
21,-0.3017578125,0.323486328125,-0.88720703125,-0.5572519083969466,-0.1450381679389313,-0.8473282442748091
22,-0.298828125,0.328369140625,-0.88427734375,-0.8778625954198473,0.08396946564885496,-0.7022900763358778
23,-0.295166015625,0.32958984375,-0.890380859375,-0.45038167938931295,-0.20610687022900764,-0.9083969465648855
24,-0.298583984375,0.32666015625,-0.884033203125,-0.4961832061068702,0.03816793893129771,-0.7709923664122137
25,-0.294921875,0.3212890625,-0.8857421875,-0.6793893129770993,0.19083969465648856,-0.6870229007633588
26,-0.29931640625,0.325439453125,-0.880859375,-0.8549618320610687,0.0916030534351145,-0.816793893129771
27,-0.297119140625,0.324951171875,-0.886474609375,-0.2748091603053435,0.11450381679389313,-0.7099236641221374
28,-0.29638671875,0.32568359375,-0.88232421875,-0.35877862595419846,0.061068702290076333,-0.7251908396946565
29,-0.294189453125,0.326416015625,-0.8828125,-0.6717557251908397,-0.10687022900763359,-0.6259541984732825
30,-0.297607421875,0.32470703125,-0.88671875,-0.6030534351145038,0.183206106870229,-0.6412213740458015
31,-0.298583984375,0.325927734375,-0.884033203125,-0.4961832061068702,0.11450381679389313,-0.6183206106870229
32,-0.29931640625,0.32373046875,-0.887451171875,-0.366412213740458,-0.11450381679389313,-0.7175572519083969
33,-0.301025390625,0.328125,-0.882568359375,-0.7633587786259542,0.16793893129770993,-0.9465648854961832
34,-0.2998046875,0.325927734375,-0.88671875,-0.46564885496183206,-0.06870229007633588,-0.9541984732824428
35,-0.297607421875,0.327392578125,-0.88818359375,-0.48091603053435117,0.007633587786259542,-0.6870229007633588
36,-0.298583984375,0.3251953125,-0.8837890625,-0.7022900763358778,0.061068702290076333,-0.816793893129771
37,-0.29833984375,0.322998046875,-0.882080078125,-0.732824427480916,-0.1450381679389313,-0.816793893129771
38,-0.297607421875,0.3271484375,-0.877685546875,-0.9694656488549618,0.2595419847328244,-0.8091603053435115
39,-0.299072265625,0.323974609375,-0.880126953125,-0.5038167938931297,0.16793893129770993,-0.7480916030534351
40,-0.29638671875,0.3251953125,-0.888427734375,-0.5954198473282443,-0.05343511450381679,-0.9236641221374046
41,-0.296142578125,0.325439453125,-0.889404296875,-0.5877862595419847,0.25190839694656486,-0.7709923664122137
42,-0.30126953125,0.323974609375,-0.881591796875,-0.5343511450381679,-0.09923664122137404,-0.5114503816793893
43,-0.290771484375,0.3134765625,-0.883056640625,-0.5114503816793893,0.10687022900763359,-0.5114503816793893
44,-0.298583984375,0.327392578125,-0.8876953125,-0.3053435114503817,0.17557251908396945,-0.9236641221374046
45,-0.295166015625,0.3271484375,-0.889892578125,-0.7022900763358778,0.07633587786259542,-1.0687022900763359
46,-0.294677734375,0.326416015625,-0.880859375,-0.648854961832061,-0.06870229007633588,-0.9236641221374046
47,-0.296142578125,0.32958984375,-0.8837890625,-0.48854961832061067,-0.16030534351145037,-0.7938931297709924
48,-0.299072265625,0.328369140625,-0.88232421875,-0.5572519083969466,-0.05343511450381679,-0.9312977099236641
49,-0.2958984375,0.326904296875,-0.883544921875,-0.40458015267175573,0.2595419847328244,-1.0076335877862594
50,-0.29931640625,0.328125,-0.891357421875,-0.33587786259541985,-0.10687022900763359,-0.8549618320610687
51,-0.299560546875,0.32568359375,-0.878173828125,-0.48854961832061067,-0.007633587786259542,-0.8244274809160306
52,-0.297119140625,0.323486328125,-0.88232421875,-0.8396946564885496,0.0916030534351145,-0.42748091603053434
53,-0.29736328125,0.32666015625,-0.882080078125,-0.0916030534351145,0.06870229007633588,-0.8854961832061069
54,-0.29833984375,0.325439453125,-0.879638671875,-0.5419847328244275,-0.1297709923664122,-0.3816793893129771
55,-0.298095703125,0.323974609375,-0.8828125,-0.3511450381679389,-0.10687022900763359,-0.9923664122137404
56,-0.296142578125,0.323486328125,-0.880859375,-0.8091603053435115,0.16793893129770993,-0.7022900763358778
57,-0.295654296875,0.325927734375,-0.880859375,-0.4122137404580153,-0.030534351145038167,-0.6870229007633588
58,-0.2939453125,0.329833984375,-0.884765625,-0.5801526717557252,-0.022900763358778626,-0.7480916030534351
59,-0.296142578125,0.325439453125,-0.88671875,-0.44274809160305345,0.05343511450381679,-0.6335877862595419
60,-0.29638671875,0.3232421875,-0.87890625,-0.45038167938931295,-0.16793893129770993,-0.6793893129770993
61,-0.295654296875,0.328369140625,-0.883544921875,-0.4961832061068702,-0.03816793893129771,-0.8778625954198473
62,-0.2978515625,0.3251953125,-0.884765625,-0.40458015267175573,-0.05343511450381679,-0.916030534351145
63,-0.297119140625,0.328125,-0.8818359375,-0.2595419847328244,0.15267175572519084,-0.7786259541984732
64,-0.295166015625,0.326171875,-0.8818359375,-0.3511450381679389,0.11450381679389313,-0.8931297709923665
65,-0.2958984375,0.32470703125,-0.87939453125,-0.25190839694656486,0.1297709923664122,-0.6870229007633588
66,-0.2998046875,0.326171875,-0.8828125,-0.40458015267175573,0.19083969465648856,-0.8320610687022901
67,-0.2978515625,0.327880859375,-0.8876953125,-0.5419847328244275,0.2366412213740458,-0.816793893129771
68,-0.2939453125,0.326416015625,-0.875732421875,-0.7938931297709924,0.13740458015267176,-0.6793893129770993
69,-0.298583984375,0.322998046875,-0.88427734375,-0.732824427480916,0.1984732824427481,-0.6106870229007634
70,-0.292724609375,0.32958984375,-0.8876953125,-0.3893129770992366,0.06870229007633588,-0.9389312977099237
71,-0.29296875,0.328125,-0.882568359375,-0.5419847328244275,0.29770992366412213,-0.8015267175572519
72,-0.297119140625,0.326904296875,-0.88818359375,-0.6870229007633588,0.04580152671755725,-0.8244274809160306
73,-0.29638671875,0.32470703125,-0.881103515625,-0.6183206106870229,0.2366412213740458,-0.9236641221374046
74,-0.300048828125,0.321044921875,-0.880615234375,-0.3969465648854962,-0.05343511450381679,-0.6259541984732825
75,-0.298828125,0.327392578125,-0.883544921875,-0.3053435114503817,-0.24427480916030533,-0.9312977099236641
76,-0.296630859375,0.320556640625,-0.881103515625,-0.3053435114503817,0.25190839694656486,-0.8778625954198473
77,-0.30078125,0.326904296875,-0.887939453125,-0.4580152671755725,0.0916030534351145,-0.6946564885496184
78,-0.300048828125,0.3251953125,-0.876953125,-0.6106870229007634,0.42748091603053434,-0.9770992366412213
79,-0.298583984375,0.32666015625,-0.882568359375,-0.7786259541984732,0.2366412213740458,-0.8473282442748091
80,-0.2939453125,0.32421875,-0.88134765625,-0.5343511450381679,-0.12213740458015267,-0.7862595419847328
81,-0.297119140625,0.32373046875,-0.88525390625,-0.5343511450381679,0.2824427480916031,-0.9618320610687023
82,-0.296142578125,0.328857421875,-0.88671875,-0.6335877862595419,0.03816793893129771,-0.7251908396946565
83,-0.2978515625,0.326416015625,-0.882080078125,-0.7557251908396947,0.48854961832061067,-0.5572519083969466
84,-0.29541015625,0.3291015625,-0.8857421875,-0.5572519083969466,-0.06870229007633588,-0.7709923664122137
85,-0.29931640625,0.32763671875,-0.8857421875,-0.46564885496183206,0.20610687022900764,-0.7557251908396947
86,-0.30078125,0.325439453125,-0.879150390625,-0.5114503816793893,-0.19083969465648856,-0.8625954198473282
87,-0.296875,0.32373046875,-0.881103515625,-0.5114503816793893,0.25190839694656486,-0.916030534351145
88,-0.293212890625,0.330810546875,-0.880859375,-0.6106870229007634,-0.09923664122137404,-0.6183206106870229
89,-0.302490234375,0.333251953125,-0.879638671875,-0.3969465648854962,0.1297709923664122,-0.6870229007633588
90,-0.296630859375,0.324951171875,-0.885498046875,-0.4961832061068702,0.05343511450381679,-0.5877862595419847
91,-0.2958984375,0.3232421875,-0.8828125,-0.6183206106870229,-0.16793893129770993,-0.6030534351145038
92,-0.2958984375,0.32568359375,-0.88720703125,-0.5190839694656488,0.06870229007633588,-0.7938931297709924
93,-0.2998046875,0.329345703125,-0.888671875,-0.5725190839694656,-0.05343511450381679,-0.8473282442748091
94,-0.2978515625,0.323974609375,-0.882568359375,-0.5038167938931297,0.05343511450381679,-0.732824427480916
95,-0.294921875,0.326171875,-0.885986328125,-0.7862595419847328,-0.05343511450381679,-0.6412213740458015
96,-0.299072265625,0.329345703125,-0.88623046875,-0.32061068702290074,-0.030534351145038167,-0.7633587786259542
97,-0.2958984375,0.326416015625,-0.885009765625,-0.7557251908396947,-0.09923664122137404,-0.5572519083969466
98,-0.29736328125,0.324951171875,-0.887451171875,-0.5267175572519084,0.015267175572519083,-0.5343511450381679
99,-0.298828125,0.324951171875,-0.88037109375,-0.5725190839694656,0.17557251908396945,-0.7022900763358778
100,-0.29931640625,0.326416015625,-0.887451171875,-0.732824427480916,-0.17557251908396945,-0.6793893129770993
101,-0.298828125,0.32568359375,-0.879638671875,-0.46564885496183206,0.05343511450381679,-0.7633587786259542
102,-0.300537109375,0.3251953125,-0.888671875,-0.2900763358778626,0.07633587786259542,-0.7862595419847328
103,-0.300537109375,0.325439453125,-0.87939453125,-0.6259541984732825,0.1450381679389313,-0.6641221374045801
104,-0.304931640625,0.324951171875,-0.879150390625,-0.5877862595419847,-0.015267175572519083,-0.6335877862595419
105,-0.294677734375,0.324462890625,-0.880859375,-0.816793893129771,-0.030534351145038167,-0.8625954198473282
106,-0.29541015625,0.322509765625,-0.8818359375,-0.6946564885496184,0.13740458015267176,-1.0916030534351144
107,-0.29931640625,0.3291015625,-0.8798828125,-0.45038167938931295,0.26717557251908397,-0.8854961832061069
108,-0.29931640625,0.326904296875,-0.88427734375,-0.44274809160305345,-0.007633587786259542,-0.6717557251908397
109,-0.297607421875,0.32861328125,-0.882568359375,-0.5648854961832062,0.1984732824427481,-0.9541984732824428
110,-0.301025390625,0.323486328125,-0.8828125,-0.5419847328244275,-0.0916030534351145,-0.7251908396946565
111,-0.29833984375,0.323486328125,-0.8837890625,-0.6106870229007634,0.08396946564885496,-0.8320610687022901
112,-0.297119140625,0.328857421875,-0.8837890625,-0.5725190839694656,-0.061068702290076333,-0.9312977099236641
113,-0.29833984375,0.323486328125,-0.88818359375,-0.40458015267175573,0.061068702290076333,-0.42748091603053434
114,-0.298583984375,0.32373046875,-0.8876953125,-0.5114503816793893,0.16793893129770993,-0.816793893129771
115,-0.296875,0.32470703125,-0.879150390625,-0.5648854961832062,-0.10687022900763359,-0.8320610687022901
116,-0.300537109375,0.3251953125,-0.88427734375,-0.5267175572519084,0.05343511450381679,-0.6259541984732825
117,-0.296142578125,0.32373046875,-0.884521484375,-0.6946564885496184,0.26717557251908397,-0.8931297709923665
118,-0.2939453125,0.329345703125,-0.886962890625,-0.5419847328244275,-0.16030534351145037,-0.8091603053435115
119,-0.2978515625,0.32666015625,-0.8798828125,-0.4198473282442748,0.26717557251908397,-0.6793893129770993
120,-0.2998046875,0.324951171875,-0.884521484375,-0.183206106870229,-0.15267175572519084,-0.9083969465648855
121,-0.299560546875,0.328125,-0.88623046875,-0.37404580152671757,-0.015267175572519083,-0.816793893129771
122,-0.29931640625,0.326904296875,-0.880126953125,-0.42748091603053434,0.08396946564885496,-0.8473282442748091
123,-0.30126953125,0.32568359375,-0.8837890625,-0.5725190839694656,-0.04580152671755725,-0.7633587786259542
124,-0.301025390625,0.3251953125,-0.88427734375,-0.48854961832061067,0.16030534351145037,-0.7099236641221374
125,-0.296142578125,0.32666015625,-0.8818359375,-0.20610687022900764,0.09923664122137404,-0.37404580152671757
126,-0.3017578125,0.3251953125,-0.876708984375,-0.5877862595419847,0.030534351145038167,-0.4351145038167939
127,-0.306640625,0.32861328125,-0.882080078125,-0.8015267175572519,-0.183206106870229,-0.8091603053435115
128,-0.29931640625,0.326416015625,-0.882568359375,-0.6717557251908397,0.022900763358778626,-0.7099236641221374
129,-0.29345703125,0.322509765625,-0.888671875,-0.5190839694656488,0.1450381679389313,-0.5343511450381679
130,-0.298583984375,0.327880859375,-0.885986328125,-0.366412213740458,0.3053435114503817,-0.8778625954198473
131,-0.29833984375,0.3251953125,-0.885498046875,-0.5419847328244275,0.16793893129770993,-0.8702290076335878
132,-0.29443359375,0.322998046875,-0.879150390625,-0.48091603053435117,-0.0916030534351145,-0.6717557251908397
133,-0.298583984375,0.323486328125,-0.890380859375,-0.5038167938931297,0.31297709923664124,-0.8244274809160306
134,-0.296630859375,0.325927734375,-0.884521484375,-0.7557251908396947,0.0,-0.7633587786259542
135,-0.297119140625,0.325927734375,-0.879638671875,-0.7938931297709924,-0.015267175572519083,-0.8931297709923665
136,-0.29736328125,0.329345703125,-0.880126953125,-0.6030534351145038,0.2366412213740458,-0.8473282442748091
137,-0.300537109375,0.325439453125,-0.8818359375,-0.3969465648854962,0.06870229007633588,-0.816793893129771
138,-0.29736328125,0.3251953125,-0.88232421875,-0.37404580152671757,0.07633587786259542,-0.7175572519083969
139,-0.29345703125,0.32763671875,-0.884765625,-0.648854961832061,0.24427480916030533,-0.7709923664122137
140,-0.298828125,0.32470703125,-0.8876953125,-0.5725190839694656,-0.030534351145038167,-0.6335877862595419
141,-0.299072265625,0.330810546875,-0.880126953125,-0.5877862595419847,0.20610687022900764,-0.8854961832061069
142,-0.292724609375,0.329833984375,-0.878173828125,-0.6870229007633588,0.19083969465648856,-0.6793893129770993
143,-0.293212890625,0.3251953125,-0.882080078125,-0.3816793893129771,0.20610687022900764,-0.5190839694656488
144,-0.296142578125,0.3251953125,-0.880859375,-0.5801526717557252,-0.04580152671755725,-0.9083969465648855
145,-0.2978515625,0.32373046875,-0.87890625,-0.6717557251908397,0.05343511450381679,-0.7099236641221374
146,-0.293212890625,0.324462890625,-0.884033203125,-0.5190839694656488,0.13740458015267176,-0.6030534351145038
147,-0.296630859375,0.32763671875,-0.885009765625,-0.3816793893129771,0.022900763358778626,-0.8396946564885496
148,-0.29931640625,0.32421875,-0.883544921875,-0.5343511450381679,-0.061068702290076333,-0.9007633587786259
149,-0.299072265625,0.3251953125,-0.885986328125,-0.7175572519083969,-0.06870229007633588,-0.8702290076335878
150,-0.294677734375,0.328369140625,-0.88330078125,-0.549618320610687,0.09923664122137404,-0.6870229007633588
151,-0.29638671875,0.326416015625,-0.88720703125,-0.3511450381679389,0.07633587786259542,-0.5954198473282443
152,-0.2919921875,0.325927734375,-0.884521484375,-0.3969465648854962,0.11450381679389313,-0.8320610687022901
153,-0.29931640625,0.32568359375,-0.8857421875,-0.24427480916030533,0.11450381679389313,-0.8702290076335878
154,-0.296630859375,0.326171875,-0.882568359375,-0.6183206106870229,0.10687022900763359,-0.6106870229007634
155,-0.295166015625,0.3271484375,-0.881103515625,-0.5954198473282443,-0.03816793893129771,-0.8473282442748091
156,-0.294921875,0.328369140625,-0.888427734375,-0.5801526717557252,0.16793893129770993,-0.7633587786259542
157,-0.295654296875,0.32958984375,-0.8798828125,-0.5114503816793893,-0.16793893129770993,-0.9083969465648855
158,-0.2958984375,0.325439453125,-0.88671875,-0.648854961832061,0.3969465648854962,-0.916030534351145
159,-0.29833984375,0.32421875,-0.88134765625,-0.7480916030534351,0.007633587786259542,-0.3816793893129771
160,-0.297119140625,0.33056640625,-0.879150390625,-0.4580152671755725,-0.022900763358778626,-0.8778625954198473
161,-0.297607421875,0.322265625,-0.880859375,-0.5267175572519084,0.0916030534351145,-0.8473282442748091
162,-0.297607421875,0.323486328125,-0.88818359375,-0.45038167938931295,-0.022900763358778626,-0.6641221374045801
163,-0.294921875,0.323974609375,-0.881591796875,-0.6946564885496184,0.20610687022900764,-0.9236641221374046
164,-0.294189453125,0.3251953125,-0.8779296875,-0.3053435114503817,0.030534351145038167,-0.8396946564885496
165,-0.296142578125,0.326416015625,-0.888427734375,-0.4580152671755725,0.10687022900763359,-0.6793893129770993
166,-0.30029296875,0.324462890625,-0.8828125,-0.648854961832061,0.33587786259541985,-0.5267175572519084
167,-0.29443359375,0.3232421875,-0.883056640625,-0.7938931297709924,0.09923664122137404,-0.7557251908396947
168,-0.2958984375,0.325439453125,-0.88623046875,-0.5954198473282443,0.22900763358778625,-0.8320610687022901
169,-0.29736328125,0.32568359375,-0.883544921875,-0.4122137404580153,0.007633587786259542,-0.9312977099236641
170,-0.29736328125,0.32470703125,-0.882080078125,-0.6183206106870229,0.0,-0.6870229007633588
171,-0.29541015625,0.322998046875,-0.885986328125,-0.5343511450381679,-0.10687022900763359,-0.6412213740458015
172,-0.297119140625,0.322265625,-0.8798828125,-0.3511450381679389,0.21374045801526717,-0.6259541984732825
173,-0.297119140625,0.3271484375,-0.880859375,-0.7404580152671756,0.22900763358778625,-0.7557251908396947
174,-0.29541015625,0.3232421875,-0.88330078125,-0.4732824427480916,0.030534351145038167,-0.8549618320610687
175,-0.302001953125,0.3203125,-0.8857421875,-0.9007633587786259,0.33587786259541985,-0.8625954198473282
176,-0.299560546875,0.325439453125,-0.879638671875,-0.549618320610687,0.1450381679389313,-0.7938931297709924
177,-0.294921875,0.3291015625,-0.8798828125,-0.33587786259541985,0.2595419847328244,-0.8778625954198473
178,-0.29931640625,0.322998046875,-0.8818359375,-0.183206106870229,0.16030534351145037,-0.7862595419847328
179,-0.302490234375,0.325439453125,-0.88525390625,-0.7022900763358778,0.17557251908396945,-0.8778625954198473
180,-0.2978515625,0.324462890625,-0.8798828125,-0.6183206106870229,0.16030534351145037,-0.7251908396946565
181,-0.294921875,0.326416015625,-0.88330078125,-1.0458015267175573,0.13740458015267176,-0.4351145038167939
182,-0.297607421875,0.32470703125,-0.883544921875,-0.5725190839694656,-0.1297709923664122,-0.7862595419847328
183,-0.29736328125,0.325927734375,-0.886962890625,-0.6259541984732825,-0.04580152671755725,-0.816793893129771
184,-0.2978515625,0.322265625,-0.883544921875,-0.42748091603053434,-0.07633587786259542,-0.816793893129771
185,-0.297119140625,0.322021484375,-0.88232421875,-0.7557251908396947,0.21374045801526717,-0.5114503816793893
186,-0.296630859375,0.32470703125,-0.887451171875,-0.7938931297709924,0.24427480916030533,-0.5190839694656488
187,-0.302490234375,0.32275390625,-0.880859375,-0.5954198473282443,0.030534351145038167,-0.5648854961832062
188,-0.296875,0.32568359375,-0.885498046875,-0.5114503816793893,0.022900763358778626,-0.6717557251908397
189,-0.29638671875,0.327880859375,-0.88037109375,-0.3816793893129771,0.16030534351145037,-0.8702290076335878
190,-0.299072265625,0.32861328125,-0.878662109375,-0.5343511450381679,0.3053435114503817,-0.7709923664122137
191,-0.297119140625,0.32470703125,-0.880859375,-0.2824427480916031,-0.022900763358778626,-0.6717557251908397
192,-0.295654296875,0.32666015625,-0.88623046875,-0.7404580152671756,-0.015267175572519083,-0.7557251908396947
193,-0.29833984375,0.323974609375,-0.8837890625,-0.5267175572519084,-0.10687022900763359,-1.0229007633587786
194,-0.296875,0.322509765625,-0.88134765625,-0.6412213740458015,-0.09923664122137404,-0.7862595419847328
195,-0.296630859375,0.328857421875,-0.886474609375,-0.5648854961832062,0.1297709923664122,-0.6870229007633588
196,-0.294189453125,0.32275390625,-0.881103515625,-0.549618320610687,0.22900763358778625,-0.5954198473282443
197,-0.298583984375,0.3251953125,-0.8828125,-0.22137404580152673,0.08396946564885496,-0.5419847328244275
198,-0.301025390625,0.326416015625,-0.883544921875,-0.45038167938931295,0.11450381679389313,-0.8320610687022901
199,-0.295654296875,0.326416015625,-0.8798828125,-0.5038167938931297,0.15267175572519084,-0.37404580152671757
200,-0.301025390625,0.323486328125,-0.88671875,-0.5267175572519084,0.04580152671755725,-0.7786259541984732
201,-0.297119140625,0.320556640625,-0.881103515625,-0.6717557251908397,0.13740458015267176,-0.8702290076335878
202,-0.29638671875,0.325927734375,-0.883544921875,-0.2900763358778626,-0.022900763358778626,-0.8244274809160306
203,-0.29736328125,0.324462890625,-0.881591796875,-0.4961832061068702,-0.05343511450381679,-0.48854961832061067
204,-0.29248046875,0.32373046875,-0.88134765625,-0.4198473282442748,0.03816793893129771,-0.5877862595419847
205,-0.298095703125,0.32421875,-0.88720703125,-0.732824427480916,0.183206106870229,-0.7938931297709924
206,-0.30078125,0.327880859375,-0.884033203125,-0.21374045801526717,0.21374045801526717,-0.7404580152671756
207,-0.29443359375,0.328125,-0.882080078125,-0.366412213740458,0.11450381679389313,-0.9618320610687023
208,-0.2978515625,0.31982421875,-0.885498046875,-0.3511450381679389,-0.06870229007633588,-0.6870229007633588
209,-0.2958984375,0.328857421875,-0.887451171875,-0.5114503816793893,-0.2824427480916031,-0.8015267175572519
210,-0.29736328125,0.326416015625,-0.88525390625,-0.4351145038167939,0.1297709923664122,-0.5954198473282443
211,-0.298828125,0.326904296875,-0.887451171875,-0.6259541984732825,0.15267175572519084,-0.7557251908396947
212,-0.296875,0.32421875,-0.883056640625,-0.2748091603053435,0.03816793893129771,-0.7938931297709924
213,-0.298828125,0.326171875,-0.8837890625,-0.648854961832061,0.1297709923664122,-0.8549618320610687
214,-0.29931640625,0.327392578125,-0.878173828125,-0.48854961832061067,0.15267175572519084,-0.6641221374045801
215,-0.29541015625,0.325439453125,-0.885986328125,-0.6564885496183206,0.21374045801526717,-0.6717557251908397
216,-0.2998046875,0.326171875,-0.89453125,-0.366412213740458,0.31297709923664124,-0.6946564885496184
217,-0.30078125,0.32470703125,-0.893310546875,-0.5190839694656488,0.15267175572519084,-0.7938931297709924
218,-0.29833984375,0.3232421875,-0.881103515625,-0.45038167938931295,0.03816793893129771,-0.6641221374045801
219,-0.297119140625,0.3251953125,-0.887939453125,-0.40458015267175573,0.16030534351145037,-0.6641221374045801
220,-0.298583984375,0.325927734375,-0.87890625,-0.6259541984732825,0.2595419847328244,-0.816793893129771
221,-0.29638671875,0.323486328125,-0.887451171875,-0.4198473282442748,-0.06870229007633588,-0.6412213740458015
222,-0.29638671875,0.32275390625,-0.88671875,-0.31297709923664124,0.10687022900763359,-0.9465648854961832
223,-0.29833984375,0.322509765625,-0.885009765625,-0.48091603053435117,-0.030534351145038167,-0.5877862595419847
224,-0.29345703125,0.322021484375,-0.8876953125,-0.5572519083969466,0.37404580152671757,-0.6335877862595419
225,-0.294189453125,0.324462890625,-0.88330078125,-0.6564885496183206,0.16030534351145037,-0.8625954198473282
226,-0.29638671875,0.32861328125,-0.884521484375,-0.6106870229007634,0.1450381679389313,-0.9618320610687023
227,-0.29638671875,0.325439453125,-0.885498046875,-0.5190839694656488,-0.08396946564885496,-0.816793893129771
228,-0.296875,0.330078125,-0.885498046875,-0.7633587786259542,0.183206106870229,-0.549618320610687
229,-0.29833984375,0.326904296875,-0.879638671875,-0.5419847328244275,0.3053435114503817,-0.9923664122137404
230,-0.297607421875,0.325927734375,-0.884033203125,-0.366412213740458,0.33587786259541985,-0.4732824427480916
231,-0.29736328125,0.324951171875,-0.8876953125,-0.48854961832061067,0.17557251908396945,-0.7709923664122137
232,-0.2939453125,0.323974609375,-0.882568359375,-0.45038167938931295,0.4122137404580153,-0.6259541984732825
233,-0.298583984375,0.326416015625,-0.88671875,-0.3969465648854962,-0.15267175572519084,-0.6564885496183206
234,-0.2978515625,0.32177734375,-0.88427734375,-0.6641221374045801,0.015267175572519083,-0.648854961832061
235,-0.2958984375,0.320068359375,-0.883056640625,-0.17557251908396945,0.11450381679389313,-0.5267175572519084
236,-0.297119140625,0.3232421875,-0.883544921875,-0.35877862595419846,0.04580152671755725,-0.8625954198473282
237,-0.296142578125,0.326416015625,-0.88525390625,-0.4580152671755725,0.3435114503816794,-0.9465648854961832
238,-0.296875,0.32568359375,-0.882080078125,-0.45038167938931295,0.0916030534351145,-0.9083969465648855
239,-0.298095703125,0.328125,-0.884765625,-0.37404580152671757,-0.030534351145038167,-0.7175572519083969
240,-0.298583984375,0.323974609375,-0.887451171875,-0.5267175572519084,0.061068702290076333,-0.8778625954198473
241,-0.296630859375,0.32763671875,-0.882568359375,-0.6412213740458015,-0.10687022900763359,-0.6412213740458015
242,-0.29541015625,0.32568359375,-0.884765625,-0.4351145038167939,0.022900763358778626,-0.6870229007633588
243,-0.295166015625,0.32275390625,-0.8818359375,-0.35877862595419846,0.08396946564885496,-0.7175572519083969
244,-0.29833984375,0.32373046875,-0.880615234375,-0.3053435114503817,0.12213740458015267,-0.9007633587786259
245,-0.297607421875,0.320068359375,-0.884033203125,-0.4580152671755725,0.05343511450381679,-0.5954198473282443
246,-0.29931640625,0.326416015625,-0.882568359375,-0.3053435114503817,0.061068702290076333,-0.8931297709923665
247,-0.299072265625,0.326171875,-0.883544921875,-0.732824427480916,0.07633587786259542,-0.3435114503816794
248,-0.2958984375,0.326904296875,-0.88232421875,-0.3053435114503817,0.007633587786259542,-0.7404580152671756
249,-0.296630859375,0.328125,-0.8857421875,-0.5877862595419847,0.03816793893129771,-0.8015267175572519
250,-0.2958984375,0.323486328125,-0.88232421875,-0.4580152671755725,-0.08396946564885496,-0.5038167938931297
251,-0.296630859375,0.325927734375,-0.8798828125,-0.6641221374045801,0.06870229007633588,-0.7099236641221374
252,-0.297607421875,0.32421875,-0.879638671875,-0.6564885496183206,0.1450381679389313,-0.8625954198473282
253,-0.29638671875,0.3232421875,-0.8828125,-0.6870229007633588,0.2366412213740458,-0.5954198473282443
254,-0.293701171875,0.3271484375,-0.88623046875,-0.08396946564885496,-0.06870229007633588,-0.8320610687022901
255,-0.2978515625,0.32568359375,-0.8818359375,-0.45038167938931295,-0.11450381679389313,-0.7786259541984732
256,-0.298583984375,0.327880859375,-0.881103515625,-0.33587786259541985,0.04580152671755725,-0.816793893129771
257,-0.29150390625,0.328857421875,-0.887451171875,-0.5648854961832062,0.0,-0.9465648854961832
258,-0.294677734375,0.326416015625,-0.88427734375,-0.2595419847328244,0.16030534351145037,-1.099236641221374
259,-0.298828125,0.326416015625,-0.879638671875,-0.5954198473282443,-0.20610687022900764,-0.7480916030534351
260,-0.296142578125,0.319580078125,-0.87890625,-0.4122137404580153,0.19083969465648856,-0.5572519083969466
261,-0.29833984375,0.32470703125,-0.884521484375,-0.6106870229007634,-0.2366412213740458,-0.6793893129770993
262,-0.296630859375,0.323486328125,-0.88525390625,-0.5801526717557252,-0.10687022900763359,-0.5877862595419847
263,-0.296875,0.32373046875,-0.887451171875,-0.5114503816793893,0.12213740458015267,-0.7709923664122137
264,-0.29541015625,0.326171875,-0.882568359375,-0.4122137404580153,0.04580152671755725,-0.7175572519083969
265,-0.29931640625,0.328857421875,-0.880615234375,-0.6030534351145038,-0.03816793893129771,-0.7557251908396947
266,-0.299560546875,0.32568359375,-0.885986328125,-0.17557251908396945,0.10687022900763359,-0.5801526717557252
267,-0.2978515625,0.331298828125,-0.887939453125,-0.4122137404580153,0.25190839694656486,-0.9465648854961832
268,-0.2978515625,0.32373046875,-0.884521484375,-0.6793893129770993,0.030534351145038167,-0.7557251908396947
269,-0.297119140625,0.32568359375,-0.8857421875,-0.6793893129770993,0.17557251908396945,-0.8091603053435115
270,-0.2958984375,0.328125,-0.882080078125,-0.7480916030534351,0.366412213740458,-0.7099236641221374
271,-0.30029296875,0.32958984375,-0.88037109375,-0.48091603053435117,0.17557251908396945,-0.7022900763358778
272,-0.297119140625,0.326416015625,-0.884765625,-0.5190839694656488,0.17557251908396945,-0.7022900763358778
273,-0.29736328125,0.3291015625,-0.887939453125,-0.5801526717557252,0.07633587786259542,-0.7862595419847328
274,-0.29638671875,0.326171875,-0.87939453125,-0.4732824427480916,0.09923664122137404,-0.8396946564885496
275,-0.29638671875,0.326416015625,-0.882080078125,0.01916030534351154,0.11648854961832061,0.20572519083969487
276,-0.297607421875,0.326171875,-0.885498046875,-0.11061068702290067,-0.005648854961832067,-0.31335877862595407
277,-0.299560546875,0.323486328125,-0.878662109375,-0.003740458015267012,0.10122137404580153,-0.19885496183206086
278,-0.298828125,0.329345703125,-0.880126953125,-0.24801526717557243,0.13938931297709922,-0.3209923664122135
279,-0.2958984375,0.32470703125,-0.887451171875,-0.19458015267175566,0.1546564885496183,0.12175572519083988
280,-0.300048828125,0.322509765625,-0.886474609375,0.24816793893129785,0.2233587786259542,-0.023282442748091436
281,-0.294921875,0.3251953125,-0.882568359375,-0.057175572519083895,-0.005648854961832067,0.12175572519083988
282,-0.29833984375,0.325927734375,-0.88427734375,0.27106870229007646,0.08595419847328242,-0.09961832061068687
283,-0.29931640625,0.324462890625,-0.884521484375,0.011526717557252042,-0.03618320610687024,-0.29809160305343496
284,-0.296142578125,0.32568359375,-0.885498046875,-0.03427480916030523,0.16229007633587783,0.15992366412213765
285,-0.296630859375,0.328125,-0.88232421875,0.11076335877862609,-0.2651908396946565,-0.08435114503816776
286,-0.30126953125,0.32666015625,-0.88623046875,-0.026641221374045676,-0.08198473282442749,-0.0614503816793891
287,-0.296630859375,0.32568359375,-0.88330078125,-0.03427480916030523,-0.09725190839694657,0.060687022900763554
288,-0.29833984375,0.329345703125,-0.88916015625,-0.11824427480916022,-0.005648854961832067,0.08358778625954222
289,-0.29931640625,0.327880859375,-0.88525390625,-0.04954198473282434,0.009618320610687014,-0.09198473282442732
290,-0.297119140625,0.3291015625,-0.875244140625,-0.12587786259541978,0.0019847328244274737,-0.2904580152671753
291,-0.29833984375,0.32470703125,-0.887939453125,-0.2174809160305342,0.03251908396946564,0.06832061068702311
292,-0.2958984375,0.329345703125,-0.88916015625,-0.270916030534351,0.06305343511450381,0.1675572519083971
293,-0.300537109375,0.324951171875,-0.88037109375,0.026793893129771096,-0.2804580152671756,-0.015648854961831882
294,-0.295166015625,0.326171875,-0.88525390625,-0.003740458015267012,-0.04381679389312978,-0.13015267175572498
295,-0.296630859375,0.328369140625,-0.882080078125,-0.08007633587786245,-0.005648854961832067,-0.13778625954198453
296,-0.294921875,0.32666015625,-0.88427734375,0.042061068702290205,-0.15068702290076336,0.12175572519083988
297,-0.29931640625,0.325927734375,-0.88525390625,-0.11824427480916022,0.2538931297709924,-0.1606870229007632
298,-0.297607421875,0.325927734375,-0.884033203125,0.01916030534351154,0.2080916030534351,-0.12251908396946543
299,-0.300537109375,0.324951171875,-0.881103515625,0.042061068702290205,0.12412213740458014,-0.04618320610686999
300,-0.297119140625,0.3232421875,-0.877197265625,-0.04954198473282434,0.03251908396946564,-0.10725190839694632
301,-0.297607421875,0.323486328125,-0.881103515625,-0.11824427480916022,-0.15068702290076336,-0.1454198473282441
302,-0.299560546875,0.327392578125,-0.884521484375,-0.10297709923664111,0.1546564885496183,-0.07671755725190821
303,-0.29443359375,0.32666015625,-0.882568359375,-0.171679389312977,-0.07435114503816795,0.03778625954198489
304,-0.29638671875,0.322509765625,-0.88720703125,-0.041908396946564785,0.3607633587786259,-0.04618320610686999
305,-0.298828125,0.329345703125,-0.880615234375,-0.0724427480916029,0.1546564885496183,-0.25229007633587763
306,-0.301025390625,0.324951171875,-0.885986328125,-0.33961832061068686,-0.18885496183206107,0.1675572519083971
307,-0.29443359375,0.32568359375,-0.8876953125,-0.09534351145038156,0.28442748091603054,-0.00038167938931277234
308,-0.295166015625,0.32666015625,-0.8857421875,0.08022900763358792,0.10122137404580153,-0.00038167938931277234
309,-0.293212890625,0.326416015625,-0.881591796875,-0.041908396946564785,0.03251908396946564,-0.41259541984732795
310,-0.297607421875,0.324462890625,-0.887451171875,-0.04954198473282434,0.1317557251908397,0.030152671755725446
311,-0.29638671875,0.324462890625,-0.883056640625,0.14129770992366425,0.024885496183206096,-0.16832061068702264
312,-0.2939453125,0.322509765625,-0.887451171875,-0.24038167938931287,-0.06671755725190841,-0.00038167938931277234
313,-0.297119140625,0.323974609375,-0.880126953125,-0.14877862595419833,0.10885496183206106,-0.04618320610686999
314,-0.296630859375,0.329345703125,-0.886474609375,-0.011374045801526567,0.03251908396946564,-0.0614503816793891
315,-0.295654296875,0.326904296875,-0.8837890625,-0.11061068702290067,0.04778625954198473,0.022519083969465892
316,-0.2958984375,0.325927734375,-0.881591796875,-0.09534351145038156,0.1546564885496183,0.23625954198473303
317,-0.29638671875,0.324951171875,-0.883056640625,0.12603053435114514,-0.24229007633587787,0.030152671755725446
318,-0.298095703125,0.326416015625,-0.881591796875,-0.026641221374045676,0.017251908396946555,-0.10725190839694632
319,-0.29736328125,0.328857421875,-0.882080078125,0.0038931297709924872,0.10122137404580153,0.11412213740458033
320,-0.2958984375,0.327880859375,-0.878662109375,-0.08007633587786245,0.09358778625954198,0.08358778625954222
321,-0.293701171875,0.329833984375,-0.884765625,0.21763358778625963,-0.2651908396946565,-0.04618320610686999
322,-0.29931640625,0.326416015625,-0.880126953125,-0.255648854961832,-0.08198473282442749,-0.008015267175572327
323,-0.29931640625,0.32373046875,-0.884765625,-0.041908396946564785,-0.03618320610687024,-0.18358778625954175
324,-0.29833984375,0.326416015625,-0.88232421875,0.1489312977099238,-0.2880916030534351,-0.1912213740458013
325,-0.2998046875,0.32568359375,-0.87890625,0.14129770992366425,-0.11251908396946565,-0.053816793893129544
326,-0.30029296875,0.329833984375,-0.882568359375,0.01916030534351154,0.0019847328244274737,-0.19885496183206086
327,-0.298095703125,0.32373046875,-0.878173828125,0.03442748091603065,0.21572519083969466,-0.28282442748091585
328,-0.298583984375,0.323974609375,-0.882080078125,0.042061068702290205,-0.028549618320610697,-0.008015267175572327
329,-0.299072265625,0.3271484375,-0.88525390625,-0.04954198473282434,0.05541984732824426,0.2896946564885498
330,-0.299560546875,0.325927734375,-0.881591796875,0.1565648854961833,0.04778625954198473,0.014885496183206337
331,-0.295654296875,0.32470703125,-0.87939453125,-0.10297709923664111,-0.173587786259542,0.2896946564885498
332,-0.298095703125,0.322998046875,-0.88623046875,0.04969465648854976,-0.18122137404580152,0.060687022900763554
333,-0.300048828125,0.3271484375,-0.885009765625,0.11076335877862609,-0.21938931297709924,0.12175572519083988
334,-0.302490234375,0.322998046875,-0.88232421875,0.011526717557252042,-0.16595419847328247,-0.04618320610686999
335,-0.295166015625,0.32275390625,-0.88525390625,0.042061068702290205,-0.06671755725190841,0.12175572519083988
336,-0.2958984375,0.324462890625,-0.880859375,0.12603053435114514,0.19282442748091605,-0.2751908396946562
337,-0.2939453125,0.3271484375,-0.889892578125,0.1336641221374047,-0.07435114503816795,-0.00038167938931277234
338,-0.29833984375,0.327392578125,-0.887939453125,-0.171679389312977,0.10885496183206106,0.1522900763358781
339,-0.30029296875,0.32763671875,-0.878173828125,-0.08007633587786245,-0.07435114503816795,0.03778625954198489
340,-0.301025390625,0.326416015625,-0.88427734375,-0.06480916030534345,0.009618320610687014,-0.008015267175572327
341,-0.30029296875,0.326416015625,-0.881103515625,0.14129770992366425,0.04015267175572518,-0.21412213740457997
342,-0.298095703125,0.32568359375,-0.87939453125,0.0038931297709924872,0.19282442748091605,-0.03091603053435099
343,-0.297119140625,0.328369140625,-0.88671875,-0.06480916030534345,0.04778625954198473,0.053053435114504
344,-0.296875,0.32958984375,-0.884033203125,0.16419847328244286,0.04015267175572518,-0.25229007633587763
345,-0.298583984375,0.328125,-0.8837890625,0.08786259541984742,0.04015267175572518,0.03778625954198489
346,-0.29296875,0.328125,-0.88671875,-0.06480916030534345,0.1546564885496183,-0.09961832061068687
347,-0.296142578125,0.3251953125,-0.892578125,-0.15641221374045788,-0.12778625954198475,-0.24465648854961808
348,-0.294189453125,0.326416015625,-0.885498046875,0.07259541984732837,0.009618320610687014,0.14465648854961854
349,-0.2958984375,0.3232421875,-0.886474609375,-0.13351145038167922,-0.21938931297709924,-0.00038167938931277234
350,-0.2978515625,0.327880859375,-0.884765625,-0.14877862595419833,0.17755725190839694,-0.1759541984732822
351,-0.29736328125,0.323486328125,-0.881591796875,0.12603053435114514,0.04015267175572518,0.014885496183206337
352,-0.294189453125,0.32421875,-0.881591796875,0.0038931297709924872,0.07068702290076334,0.06832061068702311
353,-0.296142578125,0.32373046875,-0.888671875,-0.3319847328244274,-0.1201526717557252,0.137022900763359
354,-0.2998046875,0.32861328125,-0.8828125,0.06496183206106881,-0.07435114503816795,-0.07671755725190821
355,-0.298583984375,0.32568359375,-0.87939453125,0.05732824427480926,0.14702290076335878,-0.04618320610686999
356,-0.299072265625,0.326904296875,-0.883056640625,0.1718320610687024,0.08595419847328242,-0.00038167938931277234
357,-0.301513671875,0.32568359375,-0.8759765625,0.2634351145038169,0.3378625954198473,-0.16832061068702264
358,-0.295654296875,0.323974609375,-0.88720703125,-0.4846564885496182,0.06305343511450381,0.22862595419847354
359,-0.296875,0.327880859375,-0.883544921875,-0.2174809160305342,0.04015267175572518,0.07595419847328266
360,-0.298828125,0.32666015625,-0.87890625,-0.2174809160305342,0.0019847328244274737,-0.023282442748091436
361,-0.297119140625,0.331298828125,-0.8779296875,-0.171679389312977,0.13938931297709922,0.045419847328244445
362,-0.298583984375,0.328125,-0.889404296875,-0.01900763358778612,-0.02091603053435115,-0.09198473282442732
363,-0.301025390625,0.3291015625,-0.886474609375,-0.23274809160305332,0.13938931297709922,0.12938931297709944
364,-0.30029296875,0.3232421875,-0.88134765625,-0.171679389312977,-0.04381679389312978,-0.00038167938931277234
365,-0.29638671875,0.328857421875,-0.884765625,-0.16404580152671744,0.33022900763358776,-0.015648854961831882
366,-0.294921875,0.32568359375,-0.888671875,-0.11061068702290067,-0.05908396946564887,-0.07671755725190821
367,-0.292724609375,0.3310546875,-0.889404296875,-0.03427480916030523,-0.028549618320610697,-0.19885496183206086
368,-0.29931640625,0.324462890625,-0.885009765625,-0.04954198473282434,-0.11251908396946565,-0.03091603053435099
369,-0.298583984375,0.32470703125,-0.880859375,-0.23274809160305332,-0.13541984732824427,-0.03091603053435099
370,-0.296142578125,0.328369140625,-0.8798828125,-0.087709923664122,-0.05908396946564887,-0.0614503816793891
371,-0.29638671875,0.324462890625,-0.885498046875,-0.01900763358778612,0.09358778625954198,-0.16832061068702264
372,-0.298583984375,0.325439453125,-0.886962890625,0.12603053435114514,-0.14305343511450383,-0.023282442748091436
373,-0.298583984375,0.32861328125,-0.890380859375,-0.11061068702290067,0.03251908396946564,-0.06908396946564865
374,-0.2978515625,0.329345703125,-0.883544921875,0.0038931297709924872,-0.08961832061068703,-0.08435114503816776
375,-0.299072265625,0.324951171875,-0.876220703125,0.2634351145038169,0.16229007633587783,-0.22175572519083953
376,-0.294921875,0.323974609375,-0.88037109375,-0.14877862595419833,-0.05908396946564887,-0.26755725190839674
377,-0.297607421875,0.3251953125,-0.8818359375,-0.27854961832061054,0.024885496183206096,-0.1759541984732822
378,-0.2978515625,0.325927734375,-0.881103515625,0.04969465648854976,-0.04381679389312978,0.06832061068702311
379,-0.295166015625,0.323974609375,-0.888427734375,0.042061068702290205,0.10885496183206106,0.03778625954198489
380,-0.30029296875,0.324951171875,-0.883056640625,0.07259541984732837,-0.10488549618320611,-0.03091603053435099
381,-0.2958984375,0.324951171875,-0.880126953125,-0.003740458015267012,-0.356793893129771,0.014885496183206337
382,-0.297119140625,0.3232421875,-0.88427734375,-0.15641221374045788,-0.013282442748091608,-0.19885496183206086
383,-0.2978515625,0.32666015625,-0.889404296875,0.11839694656488559,0.10122137404580153,-0.13015267175572498
384,-0.30078125,0.3212890625,-0.88134765625,-0.0724427480916029,-0.34916030534351145,-0.0614503816793891
385,-0.29833984375,0.324951171875,-0.881103515625,-0.01900763358778612,0.14702290076335878,0.137022900763359
386,-0.300537109375,0.333740234375,-0.885498046875,0.01916030534351154,-0.09725190839694657,-0.008015267175572327
387,-0.2998046875,0.327880859375,-0.880126953125,-0.27854961832061054,0.12412213740458014,-0.03091603053435099
388,-0.297607421875,0.326171875,-0.882568359375,-0.03427480916030523,0.10122137404580153,0.014885496183206337
389,-0.29931640625,0.322998046875,-0.88427734375,-0.01900763358778612,-0.04381679389312978,0.08358778625954222
390,-0.299560546875,0.326416015625,-0.883544921875,-0.026641221374045676,0.024885496183206096,-0.31335877862595407
391,-0.298583984375,0.32568359375,-0.88427734375,0.11076335877862609,0.024885496183206096,-0.00038167938931277234
392,-0.301025390625,0.32373046875,-0.884765625,0.03442748091603065,-0.2499236641221374,-0.25229007633587763
393,-0.299072265625,0.32373046875,-0.878173828125,0.3855725190839696,0.16229007633587783,0.1675572519083971
394,-0.300048828125,0.327880859375,-0.88427734375,-0.14114503816793877,0.08595419847328242,-0.008015267175572327
395,-0.299560546875,0.32275390625,-0.8837890625,0.11076335877862609,-0.10488549618320611,0.19809160305343532
396,-0.29736328125,0.320556640625,-0.885986328125,0.0038931297709924872,-0.2270229007633588,0.15992366412213765
397,-0.298583984375,0.322021484375,-0.88427734375,-0.041908396946564785,-0.05908396946564887,-0.053816793893129544
398,-0.296875,0.322509765625,-0.886474609375,-0.01900763358778612,-0.13541984732824427,0.17519083969465665
399,-0.30224609375,0.323974609375,-0.8828125,-0.10297709923664111,0.28442748091603054,-0.06908396946564865
400,-0.297119140625,0.326171875,-0.885009765625,-0.16404580152671744,0.19282442748091605,-0.1912213740458013
401,-0.29443359375,0.32666015625,-0.884765625,0.12603053435114514,0.12412213740458014,0.08358778625954222
402,-0.297607421875,0.325927734375,-0.884765625,-0.27854961832061054,-0.08961832061068703,-0.03091603053435099
403,-0.29248046875,0.32763671875,-0.884521484375,0.22526717557251918,0.2080916030534351,0.014885496183206337
404,-0.295166015625,0.3232421875,-0.88427734375,0.1718320610687024,-0.08961832061068703,0.08358778625954222
405,-0.297607421875,0.3271484375,-0.887939453125,-0.0724427480916029,-0.005648854961832067,0.022519083969465892
406,-0.298583984375,0.32421875,-0.8896484375,0.12603053435114514,0.16992366412213739,-0.08435114503816776
407,-0.295654296875,0.326416015625,-0.8857421875,-0.10297709923664111,-0.05908396946564887,-0.06908396946564865
408,-0.29638671875,0.322265625,-0.8837890625,-0.041908396946564785,0.04778625954198473,-0.015648854961831882
409,-0.2998046875,0.322998046875,-0.8798828125,-0.19458015267175566,0.24625954198473282,-0.07671755725190821
410,-0.296875,0.32568359375,-0.885498046875,-0.22511450381679377,0.2233587786259542,0.2515267175572521
411,-0.2998046875,0.325927734375,-0.8828125,-0.11061068702290067,-0.10488549618320611,-0.023282442748091436
412,-0.299072265625,0.326904296875,-0.890625,0.026793893129771096,0.1317557251908397,-0.1759541984732822
413,-0.294677734375,0.324951171875,-0.876220703125,0.0038931297709924872,0.17755725190839694,0.1522900763358781
414,-0.297119140625,0.322509765625,-0.882568359375,-0.22511450381679377,0.05541984732824426,-0.038549618320610435
415,-0.297607421875,0.3232421875,-0.888916015625,0.08022900763358792,-0.028549618320610697,-0.11488549618320587
416,-0.295654296875,0.32373046875,-0.881103515625,-0.09534351145038156,0.024885496183206096,-0.07671755725190821
417,-0.29296875,0.32421875,-0.879638671875,-0.2174809160305342,0.16992366412213739,-0.038549618320610435
418,-0.29931640625,0.326171875,-0.88232421875,0.0038931297709924872,-0.028549618320610697,-0.08435114503816776
419,-0.2978515625,0.3232421875,-0.87744140625,-0.041908396946564785,0.13938931297709922,-0.13015267175572498
420,-0.29931640625,0.3232421875,-0.884033203125,-0.003740458015267012,-0.04381679389312978,0.014885496183206337
421,-0.30322265625,0.323486328125,-0.882080078125,-0.1869465648854961,0.10122137404580153,0.10648854961832077
422,-0.294677734375,0.326416015625,-0.88037109375,-0.23274809160305332,-0.25755725190839696,0.08358778625954222
423,-0.2978515625,0.32373046875,-0.886962890625,-0.255648854961832,0.05541984732824426,0.36603053435114524
424,-0.29833984375,0.325927734375,-0.887451171875,0.11839694656488559,0.06305343511450381,-0.038549618320610435
425,-0.298095703125,0.324462890625,-0.883544921875,0.2634351145038169,0.19282442748091605,-0.053816793893129544
426,-0.297607421875,0.32763671875,-0.880126953125,-0.057175572519083895,0.09358778625954198,-0.1454198473282441
427,-0.299072265625,0.32861328125,-0.883056640625,0.09549618320610698,-0.3338931297709924,0.09885496183206133
428,-0.30029296875,0.32470703125,-0.883056640625,-0.24801526717557243,0.017251908396946555,0.09885496183206133
429,-0.29736328125,0.322265625,-0.885498046875,-0.01900763358778612,0.04015267175572518,0.19809160305343532
430,-0.29833984375,0.32470703125,-0.888427734375,0.11839694656488559,0.017251908396946555,0.07595419847328266
431,-0.298828125,0.328125,-0.8828125,-0.15641221374045788,-0.02091603053435115,0.060687022900763554
432,-0.30029296875,0.327392578125,-0.88525390625,0.1565648854961833,-0.16595419847328247,-0.09198473282442732
433,-0.29541015625,0.32080078125,-0.887451171875,0.06496183206106881,-0.173587786259542,0.09885496183206133
434,-0.297607421875,0.326171875,-0.8876953125,0.22526717557251918,-0.04381679389312978,0.31259541984732847
435,-0.296630859375,0.32470703125,-0.881103515625,0.1489312977099238,-0.32625954198473284,0.09885496183206133
436,-0.299560546875,0.322509765625,-0.8818359375,-0.19458015267175566,-0.13541984732824427,-0.053816793893129544
437,-0.29638671875,0.32568359375,-0.880859375,0.0038931297709924872,-0.173587786259542,0.09885496183206133
438,-0.30078125,0.32666015625,-0.884765625,0.0038931297709924872,-0.02091603053435115,-0.15305343511450364
439,-0.296142578125,0.331787109375,-0.885986328125,-0.057175572519083895,0.0783206106870229,0.060687022900763554
440,-0.29541015625,0.32958984375,-0.8720703125,-0.03427480916030523,-0.19648854961832063,-0.1606870229007632
441,-0.297607421875,0.32470703125,-0.880615234375,-0.011374045801526567,-0.19648854961832063,0.10648854961832077
442,-0.2998046875,0.325439453125,-0.88427734375,0.34740458015267184,0.024885496183206096,-0.23702290076335852
443,-0.29541015625,0.32861328125,-0.88525390625,-0.2022137404580151,0.2538931297709924,-0.15305343511450364
444,-0.2998046875,0.327392578125,-0.88330078125,-0.3472519083969464,-0.23465648854961832,-0.038549618320610435
445,-0.29833984375,0.325439453125,-0.8818359375,-0.15641221374045788,-0.11251908396946565,0.08358778625954222
446,-0.30078125,0.322509765625,-0.884765625,0.03442748091603065,0.20045801526717555,0.022519083969465892
447,-0.30078125,0.3271484375,-0.88037109375,0.06496183206106881,0.05541984732824426,0.11412213740458033
448,-0.294921875,0.32421875,-0.884765625,-0.2174809160305342,0.17755725190839694,0.10648854961832077
449,-0.29833984375,0.3271484375,-0.879638671875,-0.057175572519083895,-0.02091603053435115,0.20572519083969487
450,-0.29736328125,0.328857421875,-0.883544921875,-0.041908396946564785,0.04015267175572518,0.007251908396946782
451,-0.302490234375,0.326171875,-0.884765625,0.1336641221374047,0.024885496183206096,-0.023282442748091436
452,-0.297607421875,0.327392578125,-0.88330078125,-0.057175572519083895,-0.005648854961832067,0.21335877862595443
453,-0.298828125,0.3232421875,-0.884033203125,-0.011374045801526567,0.12412213740458014,0.19045801526717576
454,-0.300537109375,0.3271484375,-0.87939453125,0.2405343511450383,-0.02091603053435115,-0.023282442748091436
455,-0.297607421875,0.326171875,-0.88720703125,-0.04954198473282434,-0.013282442748091608,-0.03091603053435099
456,-0.296630859375,0.32568359375,-0.880859375,0.11076335877862609,0.11648854961832061,-0.053816793893129544
457,-0.29931640625,0.326904296875,-0.8837890625,0.011526717557252042,0.04015267175572518,-0.04618320610686999
458,-0.302490234375,0.327392578125,-0.8828125,-0.03427480916030523,0.05541984732824426,0.060687022900763554
459,-0.297607421875,0.3310546875,-0.8818359375,0.05732824427480926,-0.09725190839694657,-0.023282442748091436
460,-0.2978515625,0.32421875,-0.882568359375,0.05732824427480926,-0.005648854961832067,0.2515267175572521
461,-0.295654296875,0.326416015625,-0.882568359375,-0.13351145038167922,0.09358778625954198,-0.015648854961831882
462,-0.299560546875,0.325439453125,-0.8837890625,0.01916030534351154,0.2309923664122137,0.12175572519083988
463,-0.30224609375,0.3251953125,-0.883544921875,0.20236641221374058,-0.3186259541984733,-0.18358778625954175
464,-0.297119140625,0.324951171875,-0.883544921875,-0.2174809160305342,0.05541984732824426,-0.10725190839694632
465,-0.29833984375,0.32666015625,-0.885009765625,-0.03427480916030523,-0.10488549618320611,-0.053816793893129544
466,-0.298095703125,0.32470703125,-0.88525390625,0.042061068702290205,0.2309923664122137,0.030152671755725446
467,-0.2998046875,0.326904296875,-0.88525390625,-0.09534351145038156,0.12412213740458014,-0.03091603053435099
468,-0.29638671875,0.3310546875,-0.883544921875,-0.171679389312977,0.0019847328244274737,-0.053816793893129544
469,-0.298828125,0.32470703125,-0.879638671875,0.21763358778625963,-0.03618320610687024,-0.25229007633587763
470,-0.298583984375,0.32421875,-0.88623046875,-0.354885496183206,0.07068702290076334,-0.21412213740457997
471,-0.298095703125,0.32080078125,-0.881591796875,0.06496183206106881,-0.03618320610687024,0.2820610687022903
472,-0.30029296875,0.3291015625,-0.89013671875,-0.11061068702290067,0.05541984732824426,-0.13015267175572498
473,-0.299072265625,0.32958984375,-0.884521484375,-0.09534351145038156,-0.18885496183206107,0.10648854961832077
474,-0.29736328125,0.322021484375,-0.889404296875,-0.13351145038167922,-0.23465648854961832,0.1828244274809162
475,-0.294677734375,0.331298828125,-0.883056640625,-0.10297709923664111,-0.07435114503816795,0.12938931297709944
476,-0.304931640625,0.325439453125,-0.8896484375,0.27870229007633596,0.28442748091603054,0.007251908396946782
477,-0.30029296875,0.325927734375,-0.884521484375,0.1336641221374047,-0.005648854961832067,0.10648854961832077
478,-0.2998046875,0.326171875,-0.885498046875,-0.087709923664122,0.09358778625954198,-0.04618320610686999
479,-0.29638671875,0.325439453125,-0.87939453125,-0.08007633587786245,-0.02091603053435115,-0.3209923664122135
480,-0.29345703125,0.325927734375,-0.87841796875,-0.01900763358778612,-0.19648854961832063,0.07595419847328266
481,-0.298095703125,0.3212890625,-0.88525390625,-0.26328244274809154,-0.005648854961832067,-0.053816793893129544
482,-0.300537109375,0.323974609375,-0.878662109375,-0.09534351145038156,-0.04381679389312978,0.10648854961832077
483,-0.299560546875,0.321533203125,-0.87939453125,0.1718320610687024,-0.07435114503816795,0.14465648854961854
484,-0.296630859375,0.326171875,-0.88671875,0.05732824427480926,0.04778625954198473,-0.07671755725190821
485,-0.2978515625,0.324951171875,-0.87890625,0.08786259541984742,0.0019847328244274737,-0.038549618320610435
486,-0.295654296875,0.324462890625,-0.878173828125,0.05732824427480926,-0.1201526717557252,-0.13778625954198453
487,-0.30078125,0.322021484375,-0.886474609375,-0.003740458015267012,-0.11251908396946565,-0.09198473282442732
488,-0.298583984375,0.3271484375,-0.88330078125,0.042061068702290205,-0.07435114503816795,-0.015648854961831882
489,-0.299560546875,0.3291015625,-0.883056640625,0.07259541984732837,0.11648854961832061,0.2515267175572521
490,-0.2978515625,0.325927734375,-0.884033203125,-0.2174809160305342,0.024885496183206096,-0.13015267175572498
491,-0.301513671875,0.326904296875,-0.885009765625,0.1718320610687024,-0.13541984732824427,-0.0614503816793891
492,-0.298583984375,0.32421875,-0.8818359375,0.05732824427480926,-0.05145038167938932,-0.09198473282442732
493,-0.29638671875,0.32666015625,-0.880615234375,-0.14114503816793877,0.2996946564885496,-0.10725190839694632
494,-0.295654296875,0.32373046875,-0.8818359375,0.042061068702290205,-0.06671755725190841,-0.1454198473282441
495,-0.296875,0.326171875,-0.884765625,-0.255648854961832,-0.2499236641221374,-0.008015267175572327
496,-0.297119140625,0.323486328125,-0.8828125,0.36267175572519095,-0.2804580152671756,-0.13015267175572498
497,-0.298095703125,0.324462890625,-0.882568359375,-0.087709923664122,-0.25755725190839696,-0.023282442748091436
498,-0.30126953125,0.3271484375,-0.8779296875,-0.04954198473282434,-0.10488549618320611,-0.07671755725190821
499,-0.297607421875,0.32763671875,-0.87939453125,0.01916030534351154,-0.3186259541984733,0.06832061068702311
500,-0.29736328125,0.329345703125,-0.883544921875,-0.10297709923664111,-0.1201526717557252,0.09122137404580177
501,-0.2978515625,0.326171875,-0.884521484375,-0.13351145038167922,-0.028549618320610697,0.060687022900763554
502,-0.293701171875,0.320556640625,-0.88623046875,0.11076335877862609,0.08595419847328242,-0.06908396946564865
503,-0.29541015625,0.330322265625,-0.8837890625,-0.5075572519083967,0.10885496183206106,-0.03091603053435099
504,-0.30029296875,0.325927734375,-0.884765625,0.16419847328244286,-0.09725190839694657,-0.03091603053435099
505,-0.30029296875,0.32470703125,-0.88818359375,-0.0724427480916029,0.3149618320610687,-0.015648854961831882
506,-0.295654296875,0.3271484375,-0.886474609375,0.21763358778625963,0.1317557251908397,-0.10725190839694632
507,-0.295654296875,0.32470703125,-0.885009765625,-0.14114503816793877,0.20045801526717555,-0.13015267175572498
508,-0.30224609375,0.328369140625,-0.88330078125,-0.0724427480916029,0.11648854961832061,-0.09961832061068687
509,-0.299072265625,0.32470703125,-0.8759765625,0.0038931297709924872,-0.04381679389312978,0.1828244274809162
510,-0.296630859375,0.325927734375,-0.88818359375,0.2634351145038169,-0.173587786259542,-0.09198473282442732
511,-0.297119140625,0.32568359375,-0.88427734375,0.08022900763358792,-0.07435114503816795,-0.11488549618320587
512,-0.297607421875,0.323486328125,-0.879150390625,-0.03427480916030523,-0.04381679389312978,0.045419847328244445
513,-0.299560546875,0.3232421875,-0.884765625,-0.14877862595419833,0.04015267175572518,-0.06908396946564865
514,-0.300048828125,0.323486328125,-0.88623046875,0.23290076335877874,0.12412213740458014,-0.15305343511450364
515,-0.29345703125,0.322509765625,-0.883056640625,0.09549618320610698,0.0019847328244274737,-0.19885496183206086
516,-0.2998046875,0.327392578125,-0.884521484375,-0.19458015267175566,0.12412213740458014,0.045419847328244445
517,-0.298095703125,0.325439453125,-0.8798828125,0.18709923664122147,0.14702290076335878,0.022519083969465892
518,-0.30224609375,0.322509765625,-0.8837890625,-0.171679389312977,-0.005648854961832067,0.03778625954198489
519,-0.298095703125,0.32421875,-0.883544921875,0.03442748091603065,-0.05908396946564887,0.11412213740458033
520,-0.302978515625,0.326416015625,-0.87548828125,0.16419847328244286,-0.02091603053435115,-0.15305343511450364
521,-0.297607421875,0.321533203125,-0.878662109375,-0.026641221374045676,-0.07435114503816795,-0.15305343511450364
522,-0.296875,0.32861328125,-0.88720703125,-0.057175572519083895,-0.04381679389312978,-0.3057251908396944
523,-0.2958984375,0.3291015625,-0.881591796875,-0.23274809160305332,0.06305343511450381,-0.09961832061068687
524,-0.297119140625,0.328369140625,-0.885498046875,-0.026641221374045676,-0.07435114503816795,0.030152671755725446
525,-0.2998046875,0.326416015625,-0.8837890625,-0.16404580152671744,0.017251908396946555,-0.1606870229007632
526,-0.296630859375,0.327392578125,-0.8818359375,0.04969465648854976,-0.2499236641221374,-0.09961832061068687
527,-0.29833984375,0.327392578125,-0.879638671875,0.08786259541984742,-0.07435114503816795,0.20572519083969487
528,-0.296875,0.32666015625,-0.880859375,0.01916030534351154,-0.16595419847328247,0.09122137404580177
529,-0.298095703125,0.322509765625,-0.8876953125,-0.13351145038167922,0.1317557251908397,0.06832061068702311
530,-0.296875,0.3251953125,-0.879150390625,0.042061068702290205,0.13938931297709922,-0.26755725190839674
531,-0.299072265625,0.32666015625,-0.89013671875,-0.06480916030534345,0.0783206106870229,-0.08435114503816776
532,-0.301025390625,0.32763671875,-0.882568359375,0.11839694656488559,0.28442748091603054,0.060687022900763554
533,-0.296875,0.32763671875,-0.88818359375,0.17946564885496197,0.13938931297709922,-0.2751908396946562
534,-0.2919921875,0.328125,-0.8818359375,-0.1869465648854961,-0.2499236641221374,-0.3209923664122135
535,-0.297607421875,0.327392578125,-0.87939453125,-0.011374045801526567,-0.05908396946564887,-0.053816793893129544
536,-0.299072265625,0.32763671875,-0.875732421875,0.0038931297709924872,0.11648854961832061,0.17519083969465665
537,-0.29638671875,0.328125,-0.884521484375,-0.11061068702290067,0.06305343511450381,-0.03091603053435099
538,-0.298583984375,0.32421875,-0.883056640625,0.21000000000000013,-0.03618320610687024,0.1522900763358781
539,-0.298095703125,0.3271484375,-0.8857421875,-0.01900763358778612,-0.13541984732824427,0.014885496183206337
540,-0.29833984375,0.3251953125,-0.88427734375,-0.08007633587786245,-0.15068702290076336,-0.053816793893129544
541,-0.30078125,0.329345703125,-0.88330078125,-0.041908396946564785,0.024885496183206096,-0.038549618320610435
542,-0.30078125,0.325927734375,-0.885009765625,-0.10297709923664111,0.04015267175572518,-0.09961832061068687
543,-0.2939453125,0.324951171875,-0.879638671875,-0.11824427480916022,0.1851908396946565,-0.18358778625954175
544,-0.2998046875,0.32861328125,-0.879638671875,-0.026641221374045676,-0.02091603053435115,-0.038549618320610435
545,-0.298828125,0.32421875,-0.883056640625,-0.15641221374045788,-0.21938931297709924,-0.11488549618320587
546,-0.29736328125,0.322265625,-0.889892578125,-0.01900763358778612,0.09358778625954198,0.09122137404580177
547,-0.29736328125,0.32275390625,-0.887939453125,-0.09534351145038156,0.009618320610687014,-0.25229007633587763
548,-0.297119140625,0.330810546875,-0.89013671875,-0.1869465648854961,-0.07435114503816795,-0.11488549618320587
549,-0.295166015625,0.32177734375,-0.8818359375,0.16419847328244286,-0.06671755725190841,-0.00038167938931277234
550,-0.29736328125,0.32568359375,-0.884033203125,-0.0724427480916029,0.08595419847328242,0.11412213740458033
551,-0.300048828125,0.327880859375,-0.87890625,0.03442748091603065,-0.23465648854961832,0.014885496183206337
552,-0.2958984375,0.3291015625,-0.87841796875,0.14129770992366425,-0.13541984732824427,-0.22175572519083953
553,-0.299560546875,0.33056640625,-0.877197265625,0.08786259541984742,-0.18885496183206107,0.06832061068702311
554,-0.29248046875,0.324462890625,-0.875244140625,0.1336641221374047,-0.15068702290076336,-0.023282442748091436
555,-0.298095703125,0.32763671875,-0.88671875,-0.057175572519083895,0.05541984732824426,0.21335877862595443
556,-0.297119140625,0.326904296875,-0.883056640625,-0.15641221374045788,0.2080916030534351,0.030152671755725446
557,-0.295654296875,0.330322265625,-0.883544921875,-0.04954198473282434,-0.3033587786259542,-0.28282442748091585
558,-0.29541015625,0.326171875,-0.887939453125,-0.15641221374045788,-0.06671755725190841,0.2515267175572521
559,-0.2978515625,0.32861328125,-0.882080078125,-0.24038167938931287,-0.16595419847328247,0.2667938931297712
560,-0.2998046875,0.3251953125,-0.87939453125,0.1489312977099238,0.17755725190839694,0.014885496183206337
561,-0.298095703125,0.33056640625,-0.87890625,-0.026641221374045676,0.017251908396946555,-0.1454198473282441
562,-0.296875,0.325439453125,-0.88037109375,-0.003740458015267012,0.14702290076335878,0.29732824427480936
563,-0.2998046875,0.32763671875,-0.880615234375,0.3016030534351146,0.19282442748091605,-0.07671755725190821
564,-0.298095703125,0.32861328125,-0.8876953125,-0.11061068702290067,0.10122137404580153,-0.07671755725190821
565,-0.300048828125,0.32421875,-0.88134765625,0.2558015267175574,-0.05145038167938932,-0.1606870229007632
566,-0.292236328125,0.324462890625,-0.883544921875,0.011526717557252042,-0.028549618320610697,-0.1454198473282441
567,-0.295654296875,0.326904296875,-0.88232421875,0.2405343511450383,-0.20412213740458016,0.053053435114504
568,-0.300048828125,0.326904296875,-0.884521484375,-0.23274809160305332,0.017251908396946555,0.27442748091603075
569,-0.294677734375,0.32958984375,-0.881591796875,0.05732824427480926,0.2538931297709924,-0.1759541984732822
570,-0.294677734375,0.325439453125,-0.877197265625,0.08786259541984742,-0.06671755725190841,0.07595419847328266
571,-0.298828125,0.325927734375,-0.879638671875,0.0038931297709924872,0.10122137404580153,-0.08435114503816776
572,-0.296875,0.324951171875,-0.88623046875,-0.14877862595419833,0.009618320610687014,-0.1759541984732822
573,-0.300537109375,0.3251953125,-0.8818359375,0.11839694656488559,0.0019847328244274737,0.053053435114504
574,-0.297607421875,0.32666015625,-0.88818359375,-0.2174809160305342,0.05541984732824426,-0.13778625954198453
575,-0.298583984375,0.32470703125,-0.8828125,0.12603053435114514,-0.08961832061068703,0.12175572519083988
576,-0.2978515625,0.324951171875,-0.884765625,0.23290076335877874,-0.24229007633587787,-0.15305343511450364
577,-0.296142578125,0.326416015625,-0.88623046875,-0.087709923664122,-0.02091603053435115,0.07595419847328266
578,-0.300048828125,0.325927734375,-0.883056640625,0.0038931297709924872,-0.2880916030534351,0.007251908396946782
579,-0.296875,0.3251953125,-0.882080078125,0.1718320610687024,-0.005648854961832067,0.17519083969465665
580,-0.300048828125,0.32861328125,-0.880859375,-0.03427480916030523,0.0783206106870229,-0.015648854961831882
581,-0.301025390625,0.324462890625,-0.88134765625,-0.011374045801526567,0.0783206106870229,0.03778625954198489
582,-0.29833984375,0.322509765625,-0.884033203125,0.08022900763358792,-0.23465648854961832,-0.19885496183206086
583,-0.298095703125,0.325439453125,-0.87841796875,-0.08007633587786245,0.10885496183206106,-0.053816793893129544
584,-0.298583984375,0.32763671875,-0.880615234375,0.026793893129771096,0.1546564885496183,-0.008015267175572327
585,-0.29833984375,0.32861328125,-0.889404296875,0.18709923664122147,-0.06671755725190841,-0.06908396946564865
586,-0.299560546875,0.327392578125,-0.885009765625,0.05732824427480926,0.009618320610687014,-0.12251908396946543
587,-0.298095703125,0.330078125,-0.8818359375,-0.24038167938931287,0.05541984732824426,-0.00038167938931277234
588,-0.30029296875,0.32470703125,-0.88232421875,-0.011374045801526567,-0.1583206106870229,-0.25229007633587763
589,-0.298583984375,0.325927734375,-0.884765625,-0.003740458015267012,-0.13541984732824427,0.11412213740458033
590,-0.296875,0.327880859375,-0.884765625,-0.01900763358778612,0.09358778625954198,0.08358778625954222
591,-0.296630859375,0.324462890625,-0.884033203125,0.10312977099236653,-0.1583206106870229,-0.008015267175572327
592,-0.29248046875,0.327392578125,-0.88623046875,-0.14877862595419833,0.024885496183206096,-0.038549618320610435
593,-0.29541015625,0.324951171875,-0.883544921875,0.3016030534351146,-0.21175572519083968,0.12175572519083988
594,-0.298583984375,0.326904296875,-0.88330078125,-0.14877862595419833,-0.3720610687022901,-0.49656488549618294
595,-0.29443359375,0.326171875,-0.877197265625,-0.0724427480916029,-0.005648854961832067,-0.015648854961831882
596,-0.300537109375,0.328857421875,-0.8857421875,-0.15641221374045788,0.024885496183206096,0.137022900763359
597,-0.294677734375,0.32763671875,-0.877197265625,-0.19458015267175566,0.10122137404580153,0.030152671755725446
598,-0.2958984375,0.326416015625,-0.8828125,-0.087709923664122,-0.05145038167938932,0.053053435114504
599,-0.297607421875,0.326171875,-0.882080078125,-0.11824427480916022,-0.13541984732824427,-0.04618320610686999
600,-0.300048828125,0.327392578125,-0.88134765625,-0.01900763358778612,0.009618320610687014,-0.09961832061068687
601,-0.30029296875,0.326904296875,-0.88232421875,-0.23274809160305332,-0.18122137404580152,-0.0614503816793891
602,-0.29833984375,0.3232421875,-0.885498046875,-0.17931297709923655,0.3149618320610687,-0.12251908396946543
603,-0.29541015625,0.32373046875,-0.880126953125,0.1718320610687024,0.09358778625954198,0.014885496183206337
604,-0.298095703125,0.326904296875,-0.885009765625,0.2634351145038169,-0.11251908396946565,-0.09198473282442732
605,-0.296630859375,0.32177734375,-0.88134765625,-0.041908396946564785,-0.12778625954198475,0.12938931297709944
606,-0.30029296875,0.32763671875,-0.883056640625,0.12603053435114514,0.1546564885496183,0.022519083969465892
607,-0.29638671875,0.327880859375,-0.883056640625,-0.255648854961832,0.16992366412213739,0.22862595419847354
608,-0.29931640625,0.32861328125,-0.8828125,-0.23274809160305332,-0.07435114503816795,-0.09198473282442732
609,-0.297607421875,0.326171875,-0.881103515625,-0.08007633587786245,-0.028549618320610697,-0.29809160305343496
610,-0.299072265625,0.3232421875,-0.879638671875,-0.15641221374045788,-0.09725190839694657,0.08358778625954222
611,-0.302490234375,0.32470703125,-0.881591796875,-0.2174809160305342,0.0783206106870229,-0.10725190839694632
612,-0.299072265625,0.326416015625,-0.884033203125,0.05732824427480926,-0.005648854961832067,-0.22175572519083953
613,-0.29833984375,0.327392578125,-0.888916015625,-0.22511450381679377,-0.09725190839694657,-0.00038167938931277234
614,-0.29638671875,0.326171875,-0.882568359375,-0.011374045801526567,0.1317557251908397,0.022519083969465892
615,-0.29833984375,0.322509765625,-0.88134765625,0.1565648854961833,0.04778625954198473,-0.34389312977099207
616,-0.30078125,0.32666015625,-0.884765625,0.11839694656488559,0.16992366412213739,0.2515267175572521
617,-0.29345703125,0.32568359375,-0.888671875,-0.255648854961832,-0.1583206106870229,-0.1912213740458013
618,-0.298095703125,0.32373046875,-0.88720703125,0.1565648854961833,0.04015267175572518,0.137022900763359
619,-0.29443359375,0.323974609375,-0.88623046875,0.05732824427480926,-0.11251908396946565,0.060687022900763554
620,-0.29541015625,0.330322265625,-0.8828125,0.026793893129771096,-0.02091603053435115,0.007251908396946782
621,-0.297607421875,0.32177734375,-0.88720703125,-0.11824427480916022,0.10885496183206106,0.060687022900763554
622,-0.297119140625,0.325927734375,-0.884033203125,0.05732824427480926,-0.24229007633587787,-0.1454198473282441
623,-0.295166015625,0.3271484375,-0.890380859375,-0.29381679389312965,-0.21175572519083968,-0.15305343511450364
624,-0.30419921875,0.324951171875,-0.88232421875,-0.22511450381679377,-0.14305343511450383,-0.11488549618320587
625,-0.2978515625,0.324951171875,-0.881103515625,0.08022900763358792,0.009618320610687014,0.053053435114504
626,-0.297607421875,0.326904296875,-0.88720703125,0.026793893129771096,0.2615267175572519,0.06832061068702311
627,-0.299072265625,0.323486328125,-0.888916015625,-0.12587786259541978,0.10885496183206106,-0.3362595419847326
628,-0.296875,0.328857421875,-0.880615234375,-0.11824427480916022,0.2309923664122137,0.11412213740458033
629,-0.295166015625,0.32958984375,-0.887451171875,-0.14114503816793877,0.10122137404580153,-0.09198473282442732
630,-0.294189453125,0.3251953125,-0.88232421875,0.026793893129771096,0.03251908396946564,-0.3209923664122135
631,-0.3037109375,0.327392578125,-0.91796875,-0.270916030534351,-0.3949618320610687,-0.23702290076335852
632,-0.299560546875,0.326904296875,-0.868408203125,-4.331984732824428,-4.387328244274809,0.07595419847328266
633,-0.30029296875,0.344482421875,-0.869873046875,-8.423587786259542,-7.623969465648855,-0.3209923664122135
634,-0.308349609375,0.3720703125,-0.89599609375,-11.049541984732825,-10.402595419847328,0.12938931297709944
635,-0.332763671875,0.366943359375,-0.882080078125,-13.415954198473283,-12.852977099236641,0.15992366412213765
636,-0.326904296875,0.394287109375,-0.859375,-14.339618320610688,-14.043816793893129,-0.13015267175572498
637,-0.328125,0.392333984375,-0.85302734375,-15.1106106870229,-14.921679389312976,0.14465648854961854
638,-0.342529296875,0.40673828125,-0.85595703125,-14.31671755725191,-13.646870229007632,-0.06908396946564865
639,-0.35546875,0.35400390625,-0.806396484375,-14.706030534351145,-13.944580152671755,0.03778625954198489
640,-0.37744140625,0.3935546875,-0.818115234375,-14.446488549618321,-14.127786259541985,0.03778625954198489
641,-0.365234375,0.431396484375,-0.81494140625,-14.62206106870229,-14.19648854961832,0.19809160305343532
642,-0.350341796875,0.61865234375,-0.780517578125,-15.499923664122138,-14.822442748091602,-0.962213740458015
643,-0.41552734375,0.454345703125,-0.857177734375,-18.25564885496183,-18.051450381679388,0.14465648854961854
644,-0.443603515625,0.425537109375,-0.96923828125,-14.28618320610687,-13.84534351145038,0.9843511450381681
645,-0.435546875,0.415283203125,-0.78857421875,-12.034274809160305,-10.86824427480916,0.6255725190839697
646,-0.420654296875,0.506103515625,-0.70556640625,-13.171679389312978,-12.394961832061067,-0.22938931297709908
647,-0.426513671875,0.480224609375,-0.6630859375,-12.98847328244275,-13.051450381679388,-0.3362595419847326
648,-0.44189453125,0.49365234375,-0.644775390625,-15.240381679389314,-14.433129770992366,-0.008015267175572327
649,-0.44384765625,0.517333984375,-0.701416015625,-15.919770992366411,-15.341526717557251,0.3278625954198475
650,-0.477294921875,0.52734375,-0.75146484375,-14.873969465648855,-14.372061068702289,-0.3362595419847326
651,-0.4912109375,0.496337890625,-0.69580078125,-14.225114503816794,-13.35679389312977,-0.3209923664122135
652,-0.4833984375,0.59814453125,-0.6796875,-14.270916030534352,-13.486564885496183,-0.10725190839694632
653,-0.49853515625,0.537841796875,-0.625732421875,-14.507557251908397,-14.19648854961832,0.2667938931297712
654,-0.512939453125,0.54833984375,-0.62646484375,-15.095343511450382,-14.723206106870228,0.053053435114504
655,-0.522705078125,0.5595703125,-0.6533203125,-15.12587786259542,-14.753740458015267,0.2896946564885498
656,-0.521728515625,0.562744140625,-0.626708984375,-14.744198473282443,-13.898778625954197,0.19045801526717576
657,-0.54150390625,0.56884765625,-0.61279296875,-14.423587786259542,-13.53236641221374,0.11412213740458033
658,-0.54248046875,0.569580078125,-0.588623046875,-14.507557251908397,-14.18885496183206,0.17519083969465665
659,-0.561767578125,0.6083984375,-0.60498046875,-14.339618320610688,-14.295725190839693,-0.15305343511450364
660,-0.55908203125,0.603515625,-0.5751953125,-14.171679389312978,-13.944580152671755,-0.13015267175572498
661,-0.562255859375,0.604248046875,-0.54248046875,-14.156412213740458,-13.700305343511449,0.20572519083969487
662,-0.556396484375,0.6279296875,-0.533203125,-13.97320610687023,-13.70793893129771,-0.053816793893129544
663,-0.565185546875,0.63623046875,-0.45703125,-14.492290076335879,-14.097251908396945,-0.09198473282442732
664,-0.573974609375,0.66162109375,-0.454345703125,-15.45412213740458,-14.791908396946564,0.3278625954198475
665,-0.580810546875,0.636962890625,-0.47998046875,-15.362519083969467,-14.700305343511449,0.29732824427480936
666,-0.6005859375,0.65283203125,-0.464111328125,-14.255648854961832,-13.959847328244274,0.15992366412213765
667,-0.5869140625,0.67333984375,-0.438720703125,-13.896870229007634,-13.616335877862594,-0.13778625954198453
668,-0.60546875,0.662841796875,-0.40869140625,-14.690763358778627,-14.043816793893129,-0.07671755725190821
669,-0.5986328125,0.68603515625,-0.392578125,-15.041908396946566,-14.53236641221374,0.09122137404580177
670,-0.62060546875,0.65771484375,-0.404052734375,-15.118244274809161,-14.387328244274808,0.09122137404580177
671,-0.6220703125,0.668212890625,-0.405517578125,-14.660229007633587,-14.059083969465648,-0.11488549618320587
672,-0.61767578125,0.697265625,-0.378662109375,-14.133511450381679,-13.662137404580152,0.29732824427480936
673,-0.628662109375,0.6845703125,-0.32958984375,-14.438854961832062,-13.822442748091602,-0.16832061068702264
674,-0.643310546875,0.690673828125,-0.330322265625,-14.583893129770992,-14.394961832061067,0.10648854961832077
675,-0.648681640625,0.687255859375,-0.33447265625,-14.530458015267175,-13.936946564885496,0.08358778625954222
676,-0.6455078125,0.706298828125,-0.294189453125,-13.759465648854961,-13.440763358778625,-0.053816793893129544
677,-0.641845703125,0.717041015625,-0.26708984375,-14.331984732824427,-13.601068702290075,-0.16832061068702264
678,-0.643310546875,0.71240234375,-0.228759765625,-14.263282442748093,-13.753740458015267,-0.22938931297709908
679,-0.652099609375,0.719970703125,-0.208984375,-14.31671755725191,-13.914045801526717,0.053053435114504
680,-0.65966796875,0.70849609375,-0.212158203125,-14.919770992366413,-14.37969465648855,0.23625954198473303
681,-0.654052734375,0.728759765625,-0.1669921875,-13.98847328244275,-13.211755725190839,-0.18358778625954175
682,-0.659423828125,0.71142578125,-0.1611328125,-17.1106106870229,-16.72320610687023,-0.3209923664122135
683,-0.665283203125,0.72412109375,-0.2119140625,-17.644961832061067,-17.646870229007632,0.22099236641221398
684,-0.66650390625,0.740966796875,-0.147216796875,-12.186946564885496,-11.883511450381679,0.022519083969465892
685,-0.642333984375,0.730712890625,0.010498046875,-14.78236641221374,-14.410229007633587,-0.023282442748091436
686,-0.670654296875,0.7333984375,-0.08349609375,-17.21748091603053,-16.623969465648855,0.09122137404580177
687,-0.6787109375,0.737060546875,-0.163818359375,-15.64496183206107,-15.456030534351145,0.32022900763358797
688,-0.685791015625,0.76318359375,-0.144287109375,-13.820534351145039,-13.585801526717557,-0.35152671755725173
689,-0.690185546875,0.73681640625,-0.04736328125,-12.996106870229008,-12.769007633587785,-0.1759541984732822
690,-0.676025390625,0.73974609375,0.004638671875,-14.095343511450382,-13.837709923664121,-0.3057251908396944
691,-0.6630859375,0.755126953125,0.016845703125,-15.041908396946566,-14.417862595419846,-0.15305343511450364
692,-0.685302734375,0.722900390625,0.004638671875,-14.530458015267175,-14.059083969465648,0.32022900763358797
693,-0.671142578125,0.75439453125,0.01953125,-14.29381679389313,-13.616335877862594,-0.038549618320610435
694,-0.663818359375,0.723876953125,0.087646484375,-14.1106106870229,-13.700305343511449,0.03778625954198489
695,-0.6708984375,0.72900390625,0.08740234375,-14.759465648854961,-14.249923664122136,0.19045801526717576
696,-0.6689453125,0.732421875,0.1064453125,-14.912137404580152,-14.03618320610687,0.014885496183206337
697,-0.670654296875,0.733642578125,0.12744140625,-14.14114503816794,-13.875877862595418,0.21335877862595443
698,-0.659912109375,0.734375,0.140625,-14.591526717557253,-14.272824427480915,0.11412213740458033
699,-0.668701171875,0.731201171875,0.15966796875,-15.102977099236641,-14.875877862595418,-0.053816793893129544
700,-0.656982421875,0.7333984375,0.154296875,-14.568625954198474,-14.54,-0.008015267175572327
701,-0.654052734375,0.73193359375,0.226318359375,-13.354885496183206,-12.830076335877862,-0.4354961832061067
702,-0.660888671875,0.7451171875,0.26904296875,-15.049541984732825,-15.36442748091603,-0.053816793893129544
703,-0.647216796875,0.753173828125,0.203125,-16.27854961832061,-15.669770992366411,0.09122137404580177
704,-0.666748046875,0.73876953125,0.177001953125,-14.767099236641222,-14.165954198473282,-0.10725190839694632
705,-0.644775390625,0.75732421875,0.232666015625,-14.003740458015267,-13.272824427480915,-0.1759541984732822
706,-0.65673828125,0.688720703125,0.27978515625,-13.744198473282443,-13.593435114503816,0.09885496183206133
707,-0.648681640625,0.673095703125,0.313720703125,-14.370152671755726,-13.677404580152672,0.2438931297709926
708,-0.6416015625,0.703857421875,0.31787109375,-14.393053435114505,-14.20412213740458,0.22862595419847354
709,-0.617431640625,0.722412109375,0.326416015625,-14.248015267175573,-13.623969465648853,0.1675572519083971
710,-0.636474609375,0.69921875,0.36328125,-13.889236641221375,-13.662137404580152,0.137022900763359
711,-0.61669921875,0.692626953125,0.401123046875,-13.980839694656488,-13.730839694656488,-0.00038167938931277234
712,-0.61669921875,0.7177734375,0.415771484375,-14.560992366412213,-13.875877862595418,0.1828244274809162
713,-0.619140625,0.667236328125,0.430908203125,-14.660229007633587,-14.234656488549618,-0.023282442748091436
714,-0.60595703125,0.712890625,0.429931640625,-14.194580152671756,-14.01328244274809,0.060687022900763554
715,-0.595458984375,0.647705078125,0.467041015625,-14.560992366412213,-14.104885496183206,0.1522900763358781
716,-0.595458984375,0.658447265625,0.456787109375,-14.95793893129771,-14.37969465648855,0.19809160305343532
717,-0.601806640625,0.658935546875,0.470947265625,-15.102977099236641,-14.509465648854961,0.053053435114504
718,-0.609619140625,0.6201171875,0.47802734375,-14.324351145038168,-14.089618320610686,-0.00038167938931277234
719,-0.5986328125,0.646728515625,0.47412109375,-14.194580152671756,-14.35679389312977,0.5950381679389315
720,-0.579345703125,0.652099609375,0.508056640625,-13.45412213740458,-12.677404580152672,0.1675572519083971
721,-0.554443359375,0.671875,0.5654296875,-14.477022900763359,-14.059083969465648,-0.3896946564885494
722,-0.548583984375,0.651611328125,0.54931640625,-14.553358778625954,-14.555267175572519,-0.22938931297709908
723,-0.5537109375,0.646240234375,0.539794921875,-13.667862595419848,-13.288091603053434,-0.21412213740457997
724,-0.536865234375,0.6435546875,0.58251953125,-14.133511450381679,-13.593435114503816,0.19809160305343532
725,-0.532470703125,0.6298828125,0.6474609375,-13.461755725190839,-12.959847328244274,0.022519083969465892
726,-0.530517578125,0.611572265625,0.658203125,-14.080076335877862,-13.898778625954197,-0.4354961832061067
727,-0.532958984375,0.572021484375,0.669677734375,-14.560992366412213,-14.219389312977098,0.007251908396946782
728,-0.5087890625,0.58203125,0.6533203125,-14.652595419847328,-14.608702290076335,-0.10725190839694632
729,-0.505859375,0.583251953125,0.658447265625,-14.492290076335879,-13.906412213740458,0.12938931297709944
730,-0.4931640625,0.53759765625,0.69384765625,-14.14114503816794,-13.715572519083969,-0.2904580152671753
731,-0.4814453125,0.58447265625,0.72021484375,-14.400687022900764,-14.181221374045801,0.1828244274809162
732,-0.489990234375,0.506591796875,0.725830078125,-14.690763358778627,-14.36442748091603,0.022519083969465892
733,-0.4697265625,0.529541015625,0.729736328125,-14.484656488549618,-14.18885496183206,0.060687022900763554
734,-0.4638671875,0.51953125,0.7275390625,-14.45412213740458,-14.68503816793893,0.06832061068702311
735,-0.4599609375,0.508056640625,0.7216796875,-14.354885496183206,-13.791908396946564,0.060687022900763554
736,-0.452880859375,0.50439453125,0.74169921875,-14.049541984732825,-13.914045801526717,-0.06908396946564865
737,-0.4306640625,0.517333984375,0.7578125,-14.339618320610688,-13.906412213740458,-0.22175572519083953
738,-0.439453125,0.489013671875,0.731201171875,-13.95793893129771,-14.486564885496183,0.17519083969465665
739,-0.428466796875,0.47705078125,0.75048828125,-12.446488549618321,-12.081984732824427,0.10648854961832077
740,-0.39501953125,0.460205078125,0.927978515625,-12.431221374045801,-11.799541984732823,-0.1759541984732822
741,-0.36572265625,0.474609375,0.927734375,-14.736564885496183,-14.394961832061067,-0.15305343511450364
742,-0.380126953125,0.4375,0.860107421875,-15.194580152671756,-15.135419847328244,0.137022900763359
743,-0.366455078125,0.433349609375,0.84521484375,-15.102977099236641,-14.387328244274808,0.2438931297709926
744,-0.36865234375,0.4462890625,0.826904296875,-14.530458015267175,-13.753740458015267,-0.11488549618320587
745,-0.3486328125,0.4091796875,0.879150390625,-13.97320610687023,-13.791908396946564,-0.20648854961832042
746,-0.32421875,0.426513671875,0.8994140625,-14.599160305343512,-14.211755725190839,-0.03091603053435099
747,-0.335205078125,0.3916015625,0.872314453125,-15.019007633587787,-14.723206106870228,0.14465648854961854
748,-0.32080078125,0.431884765625,0.885009765625,-14.530458015267175,-14.234656488549618,-0.22938931297709908
749,-0.314697265625,0.376953125,0.894287109375,-14.1106106870229,-14.059083969465648,-0.10725190839694632
750,-0.303955078125,0.34375,0.90771484375,-14.331984732824427,-14.112519083969465,-0.13778625954198453
751,-0.291015625,0.341064453125,0.921142578125,-14.27854961832061,-14.043816793893129,-0.09961832061068687
752,-0.26708984375,0.344482421875,0.925537109375,-14.568625954198474,-14.051450381679388,-0.20648854961832042
753,-0.26025390625,0.3369140625,0.924560546875,-14.393053435114505,-14.127786259541985,-0.15305343511450364
754,-0.249755859375,0.321533203125,0.92626953125,-14.080076335877862,-14.18885496183206,0.1828244274809162
755,-0.244140625,0.328857421875,0.94091796875,-14.095343511450382,-13.654503816793893,-0.1606870229007632
756,-0.22412109375,0.300048828125,0.951416015625,-14.011374045801526,-13.486564885496183,-0.13778625954198453
757,-0.21337890625,0.28173828125,0.97119140625,-14.774732824427481,-14.433129770992366,-0.28282442748091585
758,-0.20556640625,0.266357421875,0.947021484375,-14.095343511450382,-13.738473282442747,0.1828244274809162
759,-0.190673828125,0.251220703125,0.989501953125,-13.072442748091603,-13.127786259541985,-0.3286259541984732
760,-0.171630859375,0.229736328125,1.027587890625,-13.927404580152672,-13.456030534351145,0.06832061068702311
761,-0.150634765625,0.24169921875,1.030029296875,-14.79763358778626,-14.318625954198472,-0.18358778625954175
762,-0.1591796875,0.20263671875,1.00732421875,-14.912137404580152,-14.616335877862594,-0.22938931297709908
763,-0.1513671875,0.20068359375,0.990966796875,-14.683129770992366,-14.288091603053434,0.045419847328244445
764,-0.126953125,0.185302734375,1.0078125,-14.415954198473283,-14.387328244274808,-0.3362595419847326
765,-0.115478515625,0.185791015625,1.008544921875,-14.347251908396947,-14.37969465648855,0.014885496183206337
766,-0.10791015625,0.15673828125,1.013427734375,-14.263282442748093,-14.112519083969465,-0.09961832061068687
767,-0.10009765625,0.142578125,1.007080078125,-14.225114503816794,-13.998015267175571,-0.21412213740457997
768,-0.08251953125,0.1396484375,1.005126953125,-14.133511450381679,-14.03618320610687,-0.12251908396946543
769,-0.06689453125,0.12646484375,1.002197265625,-13.858702290076335,-13.54,-0.08435114503816776
770,-0.054931640625,0.1064453125,1.013427734375,-13.858702290076335,-13.852977099236641,-0.023282442748091436
771,-0.046875,0.097412109375,1.023681640625,-14.011374045801526,-13.456030534351145,-0.03091603053435099
772,-0.029541015625,0.074462890625,1.02587890625,-13.820534351145039,-13.547633587786258,0.11412213740458033
773,-0.004638671875,0.0673828125,1.04736328125,-13.81290076335878,-13.639236641221373,-0.2599236641221372
774,0.0078125,0.049072265625,1.043701171875,-13.942671755725192,-13.784274809160305,-0.19885496183206086
775,0.002197265625,0.034423828125,1.03369140625,-13.866335877862596,-13.387328244274808,0.10648854961832077
776,0.038330078125,0.038330078125,1.091552734375,-15.118244274809161,-14.70793893129771,-0.28282442748091585
777,0.04248046875,0.02490234375,1.025390625,-15.347251908396947,-15.18885496183206,-0.26755725190839674
778,0.044189453125,0.01318359375,0.988525390625,-14.27854961832061,-13.944580152671755,-0.03091603053435099
779,0.06201171875,-0.0107421875,1.017578125,-14.30145038167939,-13.738473282442747,-0.10725190839694632
780,0.083740234375,-0.022216796875,1.028564453125,-14.133511450381679,-13.929312977099237,-0.08435114503816776
781,0.0927734375,-0.03515625,1.024169921875,-14.438854961832062,-13.898778625954197,-0.18358778625954175
782,0.092041015625,-0.0751953125,1.025634765625,-14.209847328244274,-14.219389312977098,-0.1912213740458013
783,0.11376953125,-0.05322265625,1.010498046875,-14.499923664122138,-13.959847328244274,-0.038549618320610435
784,0.130615234375,-0.04150390625,1.01806640625,-14.4693893129771,-14.081984732824427,-0.4583969465648853
785,0.13671875,-0.09765625,1.012939453125,-13.660229007633587,-13.616335877862594,-0.008015267175572327
786,0.154052734375,-0.11767578125,1.02099609375,-13.980839694656488,-14.005648854961832,0.14465648854961854
787,0.162841796875,-0.111572265625,1.003173828125,-14.011374045801526,-13.677404580152672,-0.11488549618320587
788,0.181884765625,-0.128173828125,1.015380859375,-14.087709923664123,-13.639236641221373,-0.10725190839694632
789,0.2021484375,-0.13427734375,1.012939453125,-13.81290076335878,-13.730839694656488,-0.22175572519083953
790,0.198486328125,-0.15283203125,1.007568359375,-13.919770992366413,-13.578167938931298,-0.1454198473282441
791,0.212890625,-0.174560546875,1.009765625,-13.79763358778626,-13.36442748091603,-0.053816793893129544
792,0.240966796875,-0.172119140625,1.01611328125,-14.415954198473283,-13.769007633587785,-0.2904580152671753
793,0.239013671875,-0.198486328125,0.998779296875,-14.095343511450382,-14.01328244274809,-0.1454198473282441
794,0.250244140625,-0.216064453125,0.996337890625,-14.370152671755726,-13.875877862595418,-0.015648854961831882
795,0.27099609375,-0.211669921875,1.01123046875,-15.225114503816794,-14.562900763358778,-0.26755725190839674
796,0.287353515625,-0.2353515625,0.9599609375,-15.415954198473283,-14.852977099236641,0.060687022900763554
797,0.284423828125,-0.246337890625,0.957763671875,-15.385419847328244,-15.02091603053435,0.19809160305343532
798,0.3046875,-0.242431640625,0.92431640625,-14.637328244274808,-14.387328244274808,0.014885496183206337
799,0.306640625,-0.249267578125,0.913818359375,-14.45412213740458,-13.875877862595418,-0.06908396946564865
800,0.33349609375,-0.27978515625,0.934326171875,-13.851068702290076,-13.18885496183206,-0.1606870229007632
801,0.3349609375,-0.298828125,0.923828125,-13.515190839694657,-13.799541984732823,-0.12251908396946543
802,0.341796875,-0.300537109375,0.91162109375,-14.148778625954199,-13.593435114503816,-0.25229007633587763
803,0.362060546875,-0.3037109375,0.92529296875,-14.263282442748093,-13.891145038167938,-0.13015267175572498
804,0.376953125,-0.333984375,0.908447265625,-14.1106106870229,-13.84534351145038,0.09885496183206133
805,0.3857421875,-0.333984375,0.89111328125,-14.232748091603053,-13.84534351145038,0.030152671755725446
806,0.38134765625,-0.3525390625,0.89501953125,-14.156412213740458,-13.662137404580152,0.1675572519083971
807,0.40283203125,-0.3623046875,0.889404296875,-13.889236641221375,-13.494198473282442,-0.29809160305343496
808,0.41650390625,-0.35791015625,0.880126953125,-13.820534351145039,-13.623969465648853,-0.35152671755725173
809,0.413818359375,-0.395263671875,0.865478515625,-14.30145038167939,-13.69267175572519,-0.28282442748091585
810,0.41796875,-0.397216796875,0.8408203125,-14.095343511450382,-14.051450381679388,0.12175572519083988
811,0.43994140625,-0.395751953125,0.827392578125,-14.576259541984733,-13.967480916030533,-0.1759541984732822
812,0.45263671875,-0.4267578125,0.82861328125,-13.95030534351145,-14.066717557251907,0.19045801526717576
813,0.46923828125,-0.398193359375,0.865234375,-14.011374045801526,-13.333893129770992,-0.08435114503816776
814,0.47119140625,-0.436767578125,0.82763671875,-14.324351145038168,-13.730839694656488,0.11412213740458033
815,0.485595703125,-0.435791015625,0.797607421875,-14.896870229007634,-14.478931297709924,-0.13778625954198453
816,0.495849609375,-0.4462890625,0.747314453125,-14.553358778625954,-14.34916030534351,-0.2751908396946562
817,0.494873046875,-0.473388671875,0.73828125,-13.736564885496183,-12.959847328244274,-0.22938931297709908
818,0.49951171875,-0.48486328125,0.759033203125,-13.698396946564886,-13.03618320610687,-0.20648854961832042
819,0.52099609375,-0.488525390625,0.748046875,-13.904503816793893,-13.616335877862594,-0.3057251908396944
820,0.532470703125,-0.489990234375,0.73681640625,-14.019007633587787,-13.623969465648853,-0.2599236641221372
821,0.530517578125,-0.50927734375,0.71923828125,-13.904503816793893,-13.37969465648855,-0.3057251908396944
822,0.540771484375,-0.51171875,0.7177734375,-14.118244274809161,-13.555267175572519,-0.008015267175572327
823,0.5556640625,-0.52734375,0.697998046875,-14.179312977099237,-13.944580152671755,-0.1912213740458013
824,0.569091796875,-0.533203125,0.688720703125,-13.942671755725192,-13.799541984732823,-0.3057251908396944
825,0.561279296875,-0.54443359375,0.67431640625,-14.423587786259542,-13.906412213740458,-0.09198473282442732
826,0.56982421875,-0.552734375,0.64599609375,-14.62969465648855,-14.097251908396945,-0.31335877862595407
827,0.580078125,-0.5595703125,0.63134765625,-14.354885496183206,-13.898778625954197,-0.00038167938931277234
828,0.59716796875,-0.567626953125,0.61572265625,-14.202213740458015,-14.372061068702289,-0.11488549618320587
829,0.593505859375,-0.578369140625,0.58349609375,-14.209847328244274,-13.952213740458015,0.09122137404580177
830,0.59521484375,-0.60107421875,0.568603515625,-14.393053435114505,-13.84534351145038,-0.21412213740457997
831,0.619140625,-0.5732421875,0.562744140625,-14.217480916030535,-13.738473282442747,-0.4354961832061067
832,0.596923828125,-0.6396484375,0.51611328125,-13.041908396946566,-12.929312977099237,-0.21412213740457997
833,0.6220703125,-0.602294921875,0.566162109375,-12.820534351145039,-12.37969465648855,-0.2904580152671753
834,0.62841796875,-0.629150390625,0.5595703125,-14.400687022900764,-13.662137404580152,-0.1759541984732822
835,0.64794921875,-0.60498046875,0.509033203125,-14.736564885496183,-13.52473282442748,-0.13778625954198453
836,0.647216796875,-0.621337890625,0.498046875,-13.492290076335879,-13.227022900763357,-0.03091603053435099
837,0.64453125,-0.638671875,0.503173828125,-14.019007633587787,-13.509465648854961,-0.15305343511450364
838,0.645751953125,-0.638427734375,0.455810546875,-13.30145038167939,-13.01328244274809,-0.22175572519083953
839,0.669921875,-0.62255859375,0.450439453125,-12.431221374045801,-12.303358778625954,-0.44312977099236617
840,0.664306640625,-0.641357421875,0.4296875,-13.102977099236641,-12.898778625954197,-0.1759541984732822
841,0.656494140625,-0.668701171875,0.403564453125,-13.93503816793893,-13.616335877862594,-0.04618320610686999
842,0.663330078125,-0.666015625,0.395263671875,-13.408320610687023,-13.02091603053435,-0.3744274809160303
843,0.679443359375,-0.658447265625,0.41162109375,-13.62969465648855,-13.456030534351145,-0.1912213740458013
844,0.683837890625,-0.661376953125,0.36767578125,-14.828167938931298,-14.51709923664122,0.09885496183206133
845,0.67919921875,-0.66015625,0.3173828125,-14.156412213740458,-13.975114503816792,-0.038549618320610435
846,0.6767578125,-0.68115234375,0.307373046875,-13.98847328244275,-13.52473282442748,-0.023282442748091436
847,0.69091796875,-0.68408203125,0.303955078125,-14.377786259541985,-14.051450381679388,-0.12251908396946543
848,0.69482421875,-0.68994140625,0.289306640625,-14.12587786259542,-13.769007633587785,0.137022900763359
849,0.689453125,-0.685546875,0.280029296875,-13.78236641221374,-13.394961832061067,0.060687022900763554
850,0.7021484375,-0.67333984375,0.25146484375,-14.29381679389313,-13.52473282442748,0.014885496183206337
851,0.701904296875,-0.696044921875,0.2236328125,-13.78236641221374,-13.341526717557251,-0.2599236641221372
852,0.709228515625,-0.7001953125,0.23583984375,-12.255648854961832,-12.066717557251907,-0.1759541984732822
853,0.71435546875,-0.681884765625,0.23583984375,-14.255648854961832,-14.249923664122136,0.1522900763358781
854,0.70361328125,-0.707763671875,0.185302734375,-14.698396946564886,-14.20412213740458,0.09885496183206133
855,0.718505859375,-0.693115234375,0.165283203125,-13.522824427480916,-12.936946564885496,-0.2904580152671753
856,0.714599609375,-0.70361328125,0.166015625,-13.79763358778626,-13.769007633587785,-0.16832061068702264
857,0.7109375,-0.711669921875,0.14111328125,-14.499923664122138,-14.135419847328244,-0.053816793893129544
858,0.7236328125,-0.683837890625,0.107177734375,-14.255648854961832,-14.165954198473282,-0.2751908396946562
859,0.727783203125,-0.70263671875,0.092529296875,-14.255648854961832,-13.898778625954197,0.045419847328244445
860,0.706298828125,-0.71240234375,0.04931640625,-13.96557251908397,-14.066717557251907,0.2667938931297712
861,0.703369140625,-0.728271484375,0.047119140625,-13.805267175572519,-13.387328244274808,0.014885496183206337
862,0.7119140625,-0.720947265625,0.02490234375,-13.851068702290076,-13.555267175572519,0.053053435114504
863,0.71142578125,-0.71142578125,0.005615234375,-14.072442748091603,-13.639236641221373,0.053053435114504
864,0.718017578125,-0.695556640625,-0.0166015625,-13.835801526717557,-13.654503816793893,-0.038549618320610435
865,0.689453125,-0.7529296875,-0.01904296875,-14.1106106870229,-13.654503816793893,-0.04618320610686999
866,0.708740234375,-0.6845703125,-0.068115234375,-14.12587786259542,-13.654503816793893,0.022519083969465892
867,0.7177734375,-0.6826171875,-0.05419921875,-13.499923664122138,-13.03618320610687,-0.08435114503816776
868,0.7099609375,-0.724853515625,-0.062744140625,-13.660229007633587,-13.486564885496183,0.15992366412213765
869,0.712890625,-0.71484375,-0.084228515625,-13.835801526717557,-13.662137404580152,-0.023282442748091436
870,0.693603515625,-0.725341796875,-0.14599609375,-13.79763358778626,-13.417862595419846,-0.13778625954198453
871,0.71044921875,-0.70361328125,-0.108642578125,-13.248015267175573,-12.791908396946564,-0.008015267175572327
872,0.705322265625,-0.7177734375,-0.111572265625,-14.087709923664123,-13.639236641221373,0.060687022900763554
873,0.694580078125,-0.71826171875,-0.156005859375,-14.614427480916031,-14.303358778625954,-0.13778625954198453
874,0.701904296875,-0.695556640625,-0.175537109375,-14.889236641221375,-14.555267175572519,-0.03091603053435099
875,0.7021484375,-0.68994140625,-0.21337890625,-14.736564885496183,-14.104885496183206,-0.11488549618320587
876,0.690185546875,-0.6806640625,-0.252685546875,-14.080076335877862,-13.723206106870228,-0.04618320610686999
877,0.67431640625,-0.70361328125,-0.259033203125,-14.29381679389313,-13.898778625954197,-0.023282442748091436
878,0.677734375,-0.679443359375,-0.271728515625,-14.080076335877862,-13.54,-0.13015267175572498
879,0.685302734375,-0.67919921875,-0.28564453125,-13.652595419847328,-13.272824427480915,0.022519083969465892
880,0.681884765625,-0.67138671875,-0.291015625,-13.93503816793893,-13.715572519083969,-0.15305343511450364
881,0.683349609375,-0.638671875,-0.33544921875,-14.1106106870229,-13.921679389312976,0.03778625954198489
882,0.6728515625,-0.6806640625,-0.343017578125,-14.1106106870229,-13.402595419847328,-0.11488549618320587
883,0.670166015625,-0.660888671875,-0.335205078125,-13.96557251908397,-12.875877862595418,-0.5499999999999997
884,0.665771484375,-0.607666015625,-0.344482421875,-13.461755725190839,-13.097251908396945,0.31259541984732847
885,0.65380859375,-0.65673828125,-0.37353515625,-14.339618320610688,-13.952213740458015,0.09885496183206133
886,0.661865234375,-0.623291015625,-0.406494140625,-14.217480916030535,-14.089618320610686,-0.2599236641221372
887,0.665771484375,-0.600341796875,-0.41357421875,-14.423587786259542,-13.898778625954197,-0.20648854961832042
888,0.641845703125,-0.632080078125,-0.43505859375,-14.209847328244274,-14.081984732824427,0.045419847328244445
889,0.63671875,-0.642333984375,-0.466552734375,-15.782366412213742,-15.19648854961832,-0.09961832061068687
890,0.61767578125,-0.62841796875,-0.50537109375,-14.728931297709924,-14.043816793893129,-0.03091603053435099
891,0.612548828125,-0.60791015625,-0.49609375,-13.93503816793893,-13.5018320610687,-0.08435114503816776
892,0.6103515625,-0.60546875,-0.478515625,-14.492290076335879,-13.929312977099237,-0.07671755725190821
893,0.609375,-0.604736328125,-0.516845703125,-14.996106870229008,-14.410229007633587,0.14465648854961854
894,0.59814453125,-0.603759765625,-0.560546875,-14.522824427480916,-13.585801526717557,-0.20648854961832042
895,0.605224609375,-0.56787109375,-0.5537109375,-14.331984732824427,-13.570534351145037,-0.1912213740458013
896,0.582275390625,-0.586669921875,-0.564208984375,-13.96557251908397,-13.69267175572519,0.14465648854961854
897,0.5771484375,-0.565185546875,-0.5927734375,-14.118244274809161,-13.753740458015267,-0.23702290076335852
898,0.572509765625,-0.5556640625,-0.603515625,-14.049541984732825,-13.394961832061067,-0.25229007633587763
899,0.56494140625,-0.5390625,-0.59375,-14.583893129770992,-13.914045801526717,-0.22938931297709908
900,0.556640625,-0.564208984375,-0.620849609375,-14.461755725190839,-14.165954198473282,-0.12251908396946543
901,0.55517578125,-0.529052734375,-0.634033203125,-13.637328244274808,-13.69267175572519,0.007251908396946782
902,0.531982421875,-0.53662109375,-0.633544921875,-13.133511450381679,-12.372061068702289,-0.06908396946564865
903,0.539306640625,-0.528076171875,-0.61376953125,-13.919770992366413,-13.746106870229006,-0.3209923664122135
904,0.519775390625,-0.514892578125,-0.639404296875,-14.706030534351145,-14.463664122137404,-0.11488549618320587
905,0.50732421875,-0.514892578125,-0.69775390625,-14.64496183206107,-14.578167938931298,0.19045801526717576
906,0.50341796875,-0.50634765625,-0.716064453125,-14.751832061068702,-14.410229007633587,-0.00038167938931277234
907,0.491455078125,-0.492919921875,-0.71533203125,-14.339618320610688,-13.929312977099237,0.25916030534351164
908,0.470703125,-0.501708984375,-0.720703125,-15.622061068702289,-15.830076335877862,0.03778625954198489
909,0.451904296875,-0.47021484375,-0.835205078125,-15.477022900763359,-14.715572519083969,-0.22175572519083953
910,0.458251953125,-0.460205078125,-0.798583984375,-13.553358778625954,-12.975114503816792,-0.1606870229007632
911,0.45849609375,-0.41064453125,-0.768310546875,-13.255648854961832,-12.784274809160305,-0.22938931297709908
912,0.438232421875,-0.4375,-0.770263671875,-14.263282442748093,-13.593435114503816,-0.3209923664122135
913,0.423095703125,-0.447509765625,-0.783935546875,-14.14114503816794,-13.723206106870228,0.19045801526717576
914,0.4228515625,-0.41552734375,-0.8076171875,-14.29381679389313,-13.746106870229006,-0.16832061068702264
915,0.3974609375,-0.40625,-0.8134765625,-13.81290076335878,-13.509465648854961,0.21335877862595443
916,0.3984375,-0.3974609375,-0.79931640625,-14.186946564885496,-14.02854961832061,-0.4354961832061067
917,0.402587890625,-0.384521484375,-0.818115234375,-14.255648854961832,-13.837709923664121,-0.3057251908396944
918,0.38427734375,-0.412353515625,-0.813232421875,-14.400687022900764,-14.326259541984731,0.030152671755725446
919,0.35546875,-0.386474609375,-0.8388671875,-14.209847328244274,-13.990381679389312,-0.3057251908396944
920,0.34228515625,-0.35693359375,-0.848876953125,-14.12587786259542,-13.914045801526717,-0.25229007633587763
921,0.34423828125,-0.3408203125,-0.8642578125,-14.790000000000001,-14.37969465648855,-0.11488549618320587
922,0.3271484375,-0.322265625,-0.88525390625,-14.240381679389314,-13.975114503816792,-0.1454198473282441
923,0.326171875,-0.30712890625,-0.888427734375,-14.45412213740458,-14.066717557251907,0.17519083969465665
924,0.30078125,-0.306640625,-0.905029296875,-14.866335877862596,-14.295725190839693,-0.18358778625954175
925,0.30126953125,-0.27783203125,-0.9033203125,-14.164045801526719,-13.593435114503816,-0.2599236641221372
926,0.291259765625,-0.29541015625,-0.898193359375,-14.156412213740458,-14.02091603053435,-0.15305343511450364
927,0.2666015625,-0.26708984375,-0.869140625,-15.347251908396947,-14.784274809160305,-0.06908396946564865
928,0.255615234375,-0.25732421875,-0.93408203125,-15.102977099236641,-14.769007633587785,-0.04618320610686999
929,0.248291015625,-0.24560546875,-0.96484375,-14.484656488549618,-13.837709923664121,-0.18358778625954175
930,0.2421875,-0.225341796875,-0.942626953125,-13.64496183206107,-13.394961832061067,-0.11488549618320587
931,0.220947265625,-0.223388671875,-0.909423828125,-14.156412213740458,-13.433129770992366,-0.04618320610686999
932,0.2109375,-0.203369140625,-0.9267578125,-14.423587786259542,-14.043816793893129,0.014885496183206337
933,0.208740234375,-0.19580078125,-0.939453125,-14.706030534351145,-14.150687022900762,-0.0614503816793891
934,0.200927734375,-0.183837890625,-0.940673828125,-14.179312977099237,-13.959847328244274,-0.15305343511450364
935,0.177490234375,-0.174072265625,-0.945556640625,-14.408320610687023,-13.761374045801526,0.07595419847328266
936,0.16162109375,-0.160400390625,-0.941650390625,-14.270916030534352,-13.776641221374044,-0.28282442748091585
937,0.154541015625,-0.132568359375,-0.969970703125,-14.904503816793893,-14.425496183206105,-0.18358778625954175
938,0.14453125,-0.120849609375,-0.987060546875,-14.858702290076335,-14.295725190839693,-0.053816793893129544
939,0.120849609375,-0.10986328125,-0.986083984375,-14.27854961832061,-13.982748091603053,-0.15305343511450364
940,0.1181640625,-0.10888671875,-0.994384765625,-14.148778625954199,-14.20412213740458,-0.3362595419847326
941,0.10498046875,-0.093017578125,-0.9873046875,-14.545725190839695,-14.249923664122136,-0.34389312977099207
942,0.093994140625,-0.06494140625,-0.99609375,-14.904503816793893,-14.074351145038166,-0.16832061068702264
943,0.078369140625,-0.0390625,-0.996337890625,-13.95793893129771,-13.54,-0.13778625954198453
944,0.069091796875,-0.0478515625,-0.988525390625,-13.675496183206107,-13.52473282442748,-0.511832061068702
945,0.063720703125,0.0068359375,-0.890869140625,-12.912137404580152,-12.662137404580152,-0.03091603053435099
946,0.04052734375,-0.026123046875,-0.9228515625,-14.133511450381679,-13.830076335877862,-0.3209923664122135
947,0.026611328125,-0.00537109375,-0.94921875,-14.362519083969467,-14.219389312977098,-0.023282442748091436
948,0.01123046875,-0.001953125,-0.9921875,-14.78236641221374,-14.341526717557251,-0.25229007633587763
949,-0.006591796875,0.016845703125,-0.9853515625,-14.713664122137406,-14.02854961832061,-0.15305343511450364
950,-0.012939453125,0.03662109375,-0.959716796875,-14.507557251908397,-13.936946564885496,-0.29809160305343496
951,-0.03125,0.058837890625,-0.957763671875,-14.889236641221375,-14.272824427480915,-0.13015267175572498
952,-0.042724609375,0.0361328125,-0.959716796875,-14.202213740458015,-14.372061068702289,-0.09961832061068687
953,-0.052490234375,0.10546875,-0.992919921875,-15.423587786259542,-14.799541984732823,-0.2904580152671753
954,-0.049072265625,0.15673828125,-1.016845703125,-14.675496183206107,-12.837709923664121,-0.3057251908396944
955,-0.084716796875,0.097412109375,-0.9853515625,-14.499923664122138,-13.456030534351145,-0.053816793893129544
956,-0.093994140625,0.106689453125,-0.97412109375,-14.1106106870229,-13.662137404580152,-0.1454198473282441
957,-0.107421875,0.129150390625,-0.9697265625,-14.667862595419848,-14.486564885496183,-0.038549618320610435
958,-0.1201171875,0.146240234375,-0.981201171875,-14.423587786259542,-14.417862595419846,0.053053435114504
959,-0.144775390625,0.14990234375,-0.97021484375,-14.461755725190839,-13.959847328244274,0.2515267175572521
960,-0.131103515625,0.171142578125,-0.971923828125,-14.339618320610688,-14.150687022900762,0.38129770992366435
961,-0.149658203125,0.17919921875,-0.96484375,-14.560992366412213,-13.776641221374044,-0.03091603053435099
962,-0.17138671875,0.206787109375,-0.939453125,-14.14114503816794,-13.52473282442748,0.11412213740458033
963,-0.19482421875,0.211669921875,-0.9384765625,-14.209847328244274,-13.631603053435114,-0.053816793893129544
964,-0.199951171875,0.21484375,-0.957763671875,-13.019007633587787,-12.830076335877862,-0.19885496183206086
965,-0.193359375,0.229736328125,-0.898193359375,-12.774732824427481,-12.265190839694656,0.2438931297709926
966,-0.207763671875,0.249755859375,-0.880859375,-14.148778625954199,-13.753740458015267,-0.023282442748091436
967,-0.21875,0.266357421875,-0.87744140625,-14.78236641221374,-14.410229007633587,0.09122137404580177
968,-0.25048828125,0.260498046875,-0.91162109375,-15.438854961832062,-14.898778625954197,0.12175572519083988
969,-0.25390625,0.29736328125,-0.91357421875,-15.118244274809161,-14.769007633587785,-0.04618320610686999
970,-0.277587890625,0.291015625,-0.900146484375,-15.186946564885496,-14.700305343511449,0.19809160305343532
971,-0.289306640625,0.3115234375,-0.913818359375,-10.652595419847328,-10.143053435114503,0.20572519083969487
972,-0.287841796875,0.297119140625,-0.867919921875,-7.667862595419848,-7.425496183206107,-0.3209923664122135
973,-0.288818359375,0.331787109375,-0.82373046875,-5.431221374045802,-4.967480916030534,-0.0614503816793891
974,-0.291259765625,0.33544921875,-0.846923828125,-3.102977099236641,-2.6697709923664124,-0.12251908396946543
975,-0.28955078125,0.343017578125,-0.882080078125,-0.3625190839694655,-0.5247328244274809,-0.11488549618320587
976,-0.302001953125,0.324462890625,-0.880615234375,0.11076335877862609,-0.04381679389312978,0.060687022900763554
977,-0.294921875,0.326904296875,-0.876220703125,-0.0724427480916029,-0.1583206106870229,-0.13015267175572498
978,-0.293701171875,0.329833984375,-0.876220703125,0.011526717557252042,-0.05145038167938932,0.03778625954198489
979,-0.295654296875,0.325439453125,-0.884521484375,-0.09534351145038156,-0.09725190839694657,-0.18358778625954175
980,-0.294921875,0.322509765625,-0.885498046875,0.33977099236641234,-0.1201526717557252,0.007251908396946782
981,-0.295166015625,0.329833984375,-0.884521484375,-0.171679389312977,-0.08198473282442749,0.045419847328244445
982,-0.29638671875,0.326171875,-0.8779296875,-0.09534351145038156,-0.05908396946564887,-0.10725190839694632
983,-0.2939453125,0.33056640625,-0.881103515625,0.09549618320610698,-0.08198473282442749,-0.06908396946564865
984,-0.29736328125,0.327392578125,-0.87841796875,0.08022900763358792,0.10122137404580153,-0.015648854961831882
985,-0.298583984375,0.328125,-0.88232421875,-0.26328244274809154,0.21572519083969466,-0.10725190839694632
986,-0.295654296875,0.32861328125,-0.88134765625,-0.011374045801526567,0.14702290076335878,0.03778625954198489
987,-0.295166015625,0.3251953125,-0.88427734375,-0.16404580152671744,0.05541984732824426,-0.20648854961832042
988,-0.29150390625,0.32861328125,-0.88134765625,-0.27854961832061054,0.009618320610687014,-0.07671755725190821
989,-0.300048828125,0.323974609375,-0.887451171875,0.042061068702290205,0.2233587786259542,0.06832061068702311
990,-0.29638671875,0.325439453125,-0.887451171875,-0.255648854961832,-0.1201526717557252,0.022519083969465892
991,-0.300537109375,0.32666015625,-0.88427734375,0.11839694656488559,0.0783206106870229,0.022519083969465892
992,-0.299560546875,0.32958984375,-0.879638671875,-0.06480916030534345,-0.2804580152671756,-0.13778625954198453
993,-0.294921875,0.327392578125,-0.8857421875,-0.01900763358778612,0.11648854961832061,-0.04618320610686999
994,-0.30029296875,0.328369140625,-0.880615234375,-0.01900763358778612,0.19282442748091605,-0.11488549618320587
995,-0.297607421875,0.330078125,-0.881591796875,-0.16404580152671744,-0.13541984732824427,0.030152671755725446
996,-0.29736328125,0.328125,-0.8818359375,0.27106870229007646,-0.1583206106870229,-0.20648854961832042
997,-0.298095703125,0.32958984375,-0.88037109375,0.09549618320610698,-0.15068702290076336,-0.21412213740457997
998,-0.29541015625,0.3251953125,-0.8779296875,-0.17931297709923655,0.276793893129771,-0.19885496183206086
999,-0.297607421875,0.32861328125,-0.88232421875,0.011526717557252042,0.37603053435114503,-0.22175572519083953
1000,-0.29443359375,0.32958984375,-0.884765625,-0.08007633587786245,-0.3186259541984733,-0.00038167938931277234
1001,-0.2978515625,0.330322265625,-0.879150390625,-0.14114503816793877,0.05541984732824426,0.030152671755725446
1002,-0.297607421875,0.3251953125,-0.88232421875,-0.011374045801526567,0.009618320610687014,0.06832061068702311
1003,-0.29541015625,0.32470703125,-0.88623046875,0.18709923664122147,-0.14305343511450383,-0.053816793893129544
1004,-0.295654296875,0.327392578125,-0.882080078125,-0.10297709923664111,-0.173587786259542,-0.3057251908396944
1005,-0.29736328125,0.327392578125,-0.879638671875,0.18709923664122147,0.0019847328244274737,-0.13015267175572498
1006,-0.298828125,0.3291015625,-0.88037109375,0.10312977099236653,0.1317557251908397,-0.0614503816793891
1007,-0.296630859375,0.33056640625,-0.884765625,0.2558015267175574,-0.08961832061068703,-0.08435114503816776
1008,-0.2978515625,0.328125,-0.88134765625,0.11839694656488559,-0.1583206106870229,0.09122137404580177
1009,-0.29931640625,0.330078125,-0.883056640625,-0.03427480916030523,-0.3415267175572519,-0.21412213740457997
1010,-0.296142578125,0.326904296875,-0.885498046875,-0.04954198473282434,0.017251908396946555,-0.23702290076335852
1011,-0.295166015625,0.32666015625,-0.8837890625,0.0038931297709924872,-0.06671755725190841,-0.16832061068702264
1012,-0.296875,0.325927734375,-0.885009765625,-0.003740458015267012,0.1851908396946565,0.2438931297709926
1013,-0.297119140625,0.328857421875,-0.884521484375,0.026793893129771096,-0.06671755725190841,-0.015648854961831882
1014,-0.29296875,0.3291015625,-0.885986328125,-0.011374045801526567,0.21572519083969466,0.03778625954198489
1015,-0.295654296875,0.326171875,-0.8828125,-0.3701526717557251,-0.21938931297709924,-0.18358778625954175
1016,-0.299072265625,0.325927734375,-0.883544921875,0.18709923664122147,-0.08961832061068703,-0.09198473282442732
1017,-0.29736328125,0.331787109375,-0.87939453125,-0.041908396946564785,-0.02091603053435115,-0.015648854961831882
1018,-0.297607421875,0.330078125,-0.881103515625,-0.04954198473282434,0.10885496183206106,-0.023282442748091436
1019,-0.297607421875,0.3271484375,-0.8896484375,-0.026641221374045676,-0.1201526717557252,0.2515267175572521
1020,-0.299072265625,0.328125,-0.88427734375,-0.2022137404580151,-0.005648854961832067,0.014885496183206337
1021,-0.296630859375,0.328857421875,-0.8779296875,0.21000000000000013,-0.18885496183206107,0.014885496183206337
1022,-0.29833984375,0.32568359375,-0.875732421875,-0.08007633587786245,-0.08961832061068703,0.07595419847328266
1023,-0.296142578125,0.326171875,-0.8837890625,-0.1869465648854961,-0.2880916030534351,-0.07671755725190821
1024,-0.29833984375,0.3271484375,-0.8798828125,0.026793893129771096,-0.05145038167938932,0.045419847328244445
1025,-0.296142578125,0.329833984375,-0.885986328125,0.1336641221374047,0.12412213740458014,-0.015648854961831882
1026,-0.2939453125,0.333984375,-0.883056640625,0.06496183206106881,-0.05145038167938932,-0.053816793893129544
1027,-0.299560546875,0.324462890625,-0.874755859375,-0.14877862595419833,0.13938931297709922,0.12175572519083988
1028,-0.296142578125,0.32958984375,-0.8779296875,0.22526717557251918,0.13938931297709922,0.09885496183206133
1029,-0.297607421875,0.32666015625,-0.883544921875,-0.057175572519083895,-0.19648854961832063,-0.15305343511450364
1030,-0.299072265625,0.3291015625,-0.885498046875,0.03442748091603065,-0.005648854961832067,-0.13778625954198453
1031,-0.293212890625,0.33154296875,-0.882568359375,-0.26328244274809154,-0.04381679389312978,-0.11488549618320587
1032,-0.301025390625,0.325439453125,-0.87939453125,-0.087709923664122,-0.08961832061068703,0.1522900763358781
1033,-0.297607421875,0.3310546875,-0.884033203125,-0.06480916030534345,-0.21175572519083968,0.19045801526717576
1034,-0.30029296875,0.327880859375,-0.880126953125,0.14129770992366425,0.04778625954198473,-0.10725190839694632
1035,-0.296142578125,0.328125,-0.887939453125,-0.14114503816793877,0.12412213740458014,0.22862595419847354
1036,-0.295166015625,0.326904296875,-0.880859375,0.09549618320610698,0.0783206106870229,-0.023282442748091436
1037,-0.296630859375,0.329345703125,-0.889404296875,-0.09534351145038156,0.06305343511450381,-0.07671755725190821
1038,-0.301025390625,0.330078125,-0.880615234375,0.011526717557252042,-0.10488549618320611,-0.0614503816793891
1039,-0.29541015625,0.33056640625,-0.885986328125,-0.22511450381679377,-0.11251908396946565,-0.23702290076335852
1040,-0.296142578125,0.327880859375,-0.87939453125,-0.1869465648854961,-0.06671755725190841,-0.23702290076335852
1041,-0.296875,0.3251953125,-0.8828125,0.04969465648854976,-0.2804580152671756,-0.06908396946564865
1042,-0.29736328125,0.32861328125,-0.8828125,-0.22511450381679377,0.04015267175572518,-0.04618320610686999
1043,-0.297119140625,0.329833984375,-0.8876953125,-0.13351145038167922,-0.005648854961832067,0.09122137404580177
1044,-0.29736328125,0.32958984375,-0.88037109375,-0.08007633587786245,-0.16595419847328247,0.014885496183206337
1045,-0.300537109375,0.327880859375,-0.882080078125,-0.2174809160305342,0.10885496183206106,0.07595419847328266
1046,-0.299072265625,0.3291015625,-0.8837890625,-0.08007633587786245,-0.1583206106870229,-0.03091603053435099
1047,-0.2978515625,0.329833984375,-0.880859375,-0.14877862595419833,-0.08198473282442749,-0.04618320610686999
1048,-0.2978515625,0.325439453125,-0.878173828125,-0.26328244274809154,-0.1201526717557252,-0.18358778625954175
1049,-0.30029296875,0.332275390625,-0.884033203125,0.21763358778625963,-0.02091603053435115,0.053053435114504
1050,-0.2958984375,0.32373046875,-0.87939453125,-0.026641221374045676,0.12412213740458014,-0.008015267175572327
1051,-0.29736328125,0.32861328125,-0.885498046875,-0.30908396946564876,0.10122137404580153,-0.07671755725190821
1052,-0.2958984375,0.32421875,-0.88232421875,0.20236641221374058,0.017251908396946555,-0.038549618320610435
1053,-0.297119140625,0.326171875,-0.88232421875,-0.2022137404580151,0.07068702290076334,-0.10725190839694632
1054,-0.2978515625,0.328369140625,-0.882568359375,0.04969465648854976,0.04778625954198473,0.22099236641221398
1055,-0.299072265625,0.32666015625,-0.886962890625,-0.09534351145038156,-0.05145038167938932,0.14465648854961854
1056,-0.294677734375,0.324462890625,-0.882080078125,0.011526717557252042,-0.06671755725190841,-0.038549618320610435
1057,-0.293701171875,0.325439453125,-0.88427734375,0.11076335877862609,-0.09725190839694657,0.38129770992366435
1058,-0.294677734375,0.330078125,-0.88330078125,-0.14877862595419833,-0.12778625954198475,0.1522900763358781
1059,-0.29541015625,0.324951171875,-0.8818359375,0.011526717557252042,-0.15068702290076336,-0.2904580152671753
1060,-0.295654296875,0.327392578125,-0.878662109375,0.06496183206106881,-0.03618320610687024,0.20572519083969487
1061,-0.29833984375,0.328125,-0.876953125,-0.15641221374045788,-0.005648854961832067,-0.06908396946564865
1062,-0.295166015625,0.328125,-0.875732421875,0.43137404580152683,0.06305343511450381,-0.015648854961831882
1063,-0.296630859375,0.33056640625,-0.875244140625,-0.06480916030534345,-0.173587786259542,0.12175572519083988
1064,-0.298583984375,0.32666015625,-0.876220703125,-0.15641221374045788,-0.08961832061068703,0.12175572519083988
1065,-0.300048828125,0.329345703125,-0.885009765625,0.08786259541984742,-0.07435114503816795,-0.06908396946564865
1066,-0.301025390625,0.326416015625,-0.879150390625,0.042061068702290205,-0.07435114503816795,0.27442748091603075
1067,-0.30224609375,0.327880859375,-0.881103515625,-0.17931297709923655,-0.38732824427480916,-0.023282442748091436
1068,-0.2958984375,0.33203125,-0.88330078125,0.21763358778625963,0.2538931297709924,-0.21412213740457997
1069,-0.295166015625,0.32568359375,-0.883056640625,0.04969465648854976,-0.21938931297709924,0.08358778625954222
1070,-0.298095703125,0.328125,-0.87841796875,0.08786259541984742,-0.21175572519083968,-0.07671755725190821
1071,-0.29931640625,0.328125,-0.88525390625,-0.10297709923664111,-0.028549618320610697,0.2667938931297712
1072,-0.297607421875,0.326416015625,-0.886474609375,0.10312977099236653,-0.1201526717557252,-0.10725190839694632
1073,-0.293701171875,0.328125,-0.878173828125,0.0038931297709924872,0.16992366412213739,-0.19885496183206086
1074,-0.2978515625,0.32861328125,-0.88134765625,0.1336641221374047,0.16229007633587783,-0.20648854961832042
1075,-0.30078125,0.32763671875,-0.884033203125,-0.13351145038167922,0.14702290076335878,-0.06908396946564865
1076,-0.29638671875,0.330078125,-0.883056640625,0.3321374045801528,-0.23465648854961832,-0.0614503816793891
1077,-0.295654296875,0.33056640625,-0.8828125,0.011526717557252042,0.20045801526717555,-0.22938931297709908
1078,-0.296875,0.3271484375,-0.884521484375,-0.11061068702290067,-0.07435114503816795,-0.11488549618320587
1079,-0.298828125,0.32763671875,-0.885986328125,-0.2861832061068701,0.03251908396946564,0.08358778625954222
1080,-0.299072265625,0.327392578125,-0.880615234375,-0.19458015267175566,0.2538931297709924,0.03778625954198489
1081,-0.2978515625,0.325439453125,-0.87744140625,-0.17931297709923655,0.009618320610687014,-0.08435114503816776
1082,-0.295166015625,0.32666015625,-0.88330078125,-0.041908396946564785,-0.11251908396946565,-0.1759541984732822
1083,-0.29736328125,0.32666015625,-0.886474609375,-0.10297709923664111,-0.14305343511450383,-0.015648854961831882
1084,-0.295654296875,0.327392578125,-0.883056640625,-0.22511450381679377,-0.08198473282442749,-0.00038167938931277234
1085,-0.29638671875,0.325439453125,-0.884033203125,0.0038931297709924872,-0.16595419847328247,-0.3209923664122135
1086,-0.295654296875,0.330322265625,-0.8828125,-0.17931297709923655,0.10885496183206106,-0.13778625954198453
1087,-0.293701171875,0.3291015625,-0.885986328125,-0.026641221374045676,-0.12778625954198475,0.060687022900763554
1088,-0.2978515625,0.327880859375,-0.88671875,-0.10297709923664111,0.1317557251908397,-0.07671755725190821
1089,-0.29833984375,0.3291015625,-0.8876953125,0.11839694656488559,-0.04381679389312978,-0.023282442748091436
1090,-0.293701171875,0.331298828125,-0.88330078125,-0.1869465648854961,-0.005648854961832067,-0.015648854961831882
1091,-0.295654296875,0.326416015625,-0.8759765625,0.06496183206106881,0.04778625954198473,-0.44312977099236617
1092,-0.295166015625,0.332763671875,-0.8759765625,-0.10297709923664111,-0.09725190839694657,0.07595419847328266
1093,-0.29638671875,0.330078125,-0.882080078125,0.06496183206106881,0.17755725190839694,-0.3591603053435112
1094,-0.29736328125,0.3310546875,-0.879638671875,-0.026641221374045676,0.06305343511450381,0.007251908396946782
1095,-0.29736328125,0.32861328125,-0.883544921875,-0.14114503816793877,0.11648854961832061,0.030152671755725446
1096,-0.29638671875,0.33056640625,-0.8798828125,-0.15641221374045788,-0.04381679389312978,-0.09198473282442732
1097,-0.2958984375,0.328369140625,-0.880126953125,-0.27854961832061054,0.009618320610687014,0.030152671755725446
1098,-0.296875,0.326904296875,-0.87939453125,0.01916030534351154,-0.05145038167938932,-0.2599236641221372
1099,-0.30029296875,0.328369140625,-0.881591796875,-0.16404580152671744,-0.13541984732824427,-0.15305343511450364
1100,-0.295166015625,0.330078125,-0.877197265625,-0.13351145038167922,-0.02091603053435115,-0.038549618320610435
1101,-0.300537109375,0.328857421875,-0.8857421875,-0.04954198473282434,-0.005648854961832067,0.1828244274809162
1102,-0.29345703125,0.3291015625,-0.882568359375,-0.14114503816793877,-0.03618320610687024,0.19045801526717576
