sample,Accel X,Accel Y,Accel Z,Gyro X,Gyro Y,Gyro Z
0,-0.2841796875,0.324462890625,0.87255859375,-1.9465648854961832,0.05343511450381679,-0.007633587786259542
1,-0.282958984375,0.3251953125,0.8759765625,-2.045801526717557,0.20610687022900764,0.08396946564885496
2,-0.282470703125,0.327880859375,0.87890625,-1.8702290076335877,0.29770992366412213,0.1984732824427481
3,-0.28515625,0.32666015625,0.87548828125,-2.045801526717557,0.15267175572519084,0.3893129770992366
4,-0.27978515625,0.328857421875,0.878173828125,-1.8015267175572518,0.6335877862595419,0.26717557251908397
5,-0.2802734375,0.32958984375,0.871826171875,-1.7099236641221374,0.0916030534351145,0.33587786259541985
6,-0.27880859375,0.326904296875,0.871826171875,-1.7786259541984732,0.09923664122137404,0.17557251908396945
7,-0.28173828125,0.32470703125,0.8740234375,-1.6870229007633588,0.3816793893129771,-0.2748091603053435
8,-0.285400390625,0.329833984375,0.87060546875,-1.8625954198473282,0.6564885496183206,0.030534351145038167
9,-0.284912109375,0.3291015625,0.87939453125,-1.9465648854961832,0.15267175572519084,0.2595419847328244
10,-0.283935546875,0.323974609375,0.87548828125,-1.6946564885496183,0.2595419847328244,0.1984732824427481
11,-0.281982421875,0.32861328125,0.87353515625,-1.83206106870229,0.5572519083969466,0.2900763358778626
12,-0.281982421875,0.32763671875,0.87353515625,-1.83206106870229,-0.16030534351145037,-0.05343511450381679
13,-0.286376953125,0.329833984375,0.867431640625,-1.786259541984733,0.15267175572519084,0.17557251908396945
14,-0.284423828125,0.326904296875,0.8759765625,-1.5419847328244274,0.2748091603053435,0.37404580152671757
15,-0.28173828125,0.32666015625,0.868408203125,-1.9465648854961832,0.24427480916030533,0.26717557251908397
16,-0.285400390625,0.328857421875,0.87255859375,-1.7557251908396947,0.3435114503816794,0.1297709923664122
17,-0.281494140625,0.325439453125,0.87109375,-1.9236641221374047,0.29770992366412213,0.22137404580152673
18,-0.279296875,0.32666015625,0.8720703125,-1.916030534351145,0.3893129770992366,0.25190839694656486
19,-0.279541015625,0.331787109375,0.879150390625,-1.7328244274809161,0.21374045801526717,0.08396946564885496
20,-0.282470703125,0.32763671875,0.870849609375,-1.8396946564885497,0.10687022900763359,0.15267175572519084
21,-0.283447265625,0.328857421875,0.872802734375,-1.6030534351145038,0.4351145038167939,0.16793893129770993
22,-0.282470703125,0.324462890625,0.874267578125,-1.9770992366412214,0.2824427480916031,-0.0916030534351145
23,-0.2822265625,0.326171875,0.878173828125,-1.7633587786259541,0.20610687022900764,0.3435114503816794
24,-0.28662109375,0.328125,0.86767578125,-1.7557251908396947,0.37404580152671757,0.061068702290076333
25,-0.284912109375,0.328369140625,0.87451171875,-1.8549618320610688,0.21374045801526717,0.09923664122137404
26,-0.28662109375,0.325439453125,0.873291015625,-1.7328244274809161,0.10687022900763359,0.061068702290076333
27,-0.284423828125,0.326904296875,0.87451171875,-1.8015267175572518,0.26717557251908397,0.22137404580152673
28,-0.28173828125,0.325927734375,0.87646484375,-1.8549618320610688,0.366412213740458,0.0916030534351145
29,-0.283935546875,0.3271484375,0.870361328125,-1.8854961832061068,0.21374045801526717,0.09923664122137404
30,-0.2841796875,0.32958984375,0.874755859375,-1.6106870229007633,0.45038167938931295,0.2900763358778626
31,-0.2802734375,0.328369140625,0.8740234375,-1.6946564885496183,0.10687022900763359,0.13740458015267176
32,-0.2802734375,0.32666015625,0.87548828125,-1.786259541984733,0.26717557251908397,0.007633587786259542
33,-0.282470703125,0.330078125,0.87890625,-1.6717557251908397,0.21374045801526717,0.04580152671755725
34,-0.28271484375,0.327880859375,0.8779296875,-1.6870229007633588,0.48091603053435117,0.2824427480916031
35,-0.2802734375,0.325439453125,0.8701171875,-1.8244274809160306,0.4351145038167939,0.19083969465648856
36,-0.280517578125,0.328857421875,0.876220703125,-1.7557251908396947,0.24427480916030533,0.26717557251908397
37,-0.28515625,0.326904296875,0.865966796875,-2.015267175572519,0.03816793893129771,0.4198473282442748
38,-0.28369140625,0.330078125,0.870361328125,-1.8931297709923665,0.549618320610687,-0.022900763358778626
39,-0.28466796875,0.324951171875,0.871826171875,-1.702290076335878,0.24427480916030533,0.022900763358778626
40,-0.282958984375,0.326904296875,0.870361328125,-1.8778625954198473,0.5343511450381679,0.06870229007633588
41,-0.283447265625,0.32666015625,0.874755859375,-2.045801526717557,0.1450381679389313,0.1450381679389313
42,-0.283447265625,0.331298828125,0.871826171875,-1.786259541984733,0.37404580152671757,0.1450381679389313
43,-0.28173828125,0.32666015625,0.8720703125,-1.8396946564885497,0.4961832061068702,0.2366412213740458
44,-0.28369140625,0.33056640625,0.8779296875,-2.045801526717557,0.13740458015267176,0.183206106870229
45,-0.2802734375,0.325927734375,0.8759765625,-1.8549618320610688,0.2595419847328244,-0.015267175572519083
46,-0.282470703125,0.330322265625,0.877197265625,-2.053435114503817,0.08396946564885496,0.0916030534351145
47,-0.28076171875,0.325439453125,0.86865234375,-1.6946564885496183,-0.0916030534351145,0.2900763358778626
48,-0.280029296875,0.330078125,0.8759765625,-1.5267175572519085,0.3053435114503817,0.17557251908396945
49,-0.281005859375,0.324951171875,0.873046875,-1.9389312977099236,0.15267175572519084,0.12213740458015267
50,-0.281982421875,0.328125,0.875244140625,-1.748091603053435,0.4961832061068702,-0.1297709923664122
51,-0.282470703125,0.32958984375,0.87548828125,-1.7404580152671756,0.32061068702290074,0.2900763358778626
52,-0.287353515625,0.32958984375,0.87060546875,-1.7557251908396947,0.2595419847328244,0.061068702290076333
53,-0.280029296875,0.326904296875,0.873779296875,-1.8473282442748091,0.35877862595419846,0.022900763358778626
54,-0.28369140625,0.322021484375,0.874755859375,-2.015267175572519,0.007633587786259542,0.08396946564885496
55,-0.28125,0.330078125,0.86865234375,-1.8473282442748091,0.4351145038167939,0.48854961832061067
56,-0.281494140625,0.32861328125,0.875244140625,-1.9770992366412214,0.32061068702290074,0.4122137404580153
57,-0.28271484375,0.325927734375,0.871337890625,-1.7938931297709924,0.5343511450381679,0.2900763358778626
58,-0.2802734375,0.32763671875,0.871337890625,-1.8396946564885497,0.06870229007633588,0.10687022900763359
59,-0.281982421875,0.32763671875,0.87158203125,-2.16793893129771,0.10687022900763359,0.35877862595419846
60,-0.2822265625,0.32861328125,0.875732421875,-1.748091603053435,0.05343511450381679,0.35877862595419846
61,-0.279052734375,0.330810546875,0.879638671875,-1.7938931297709924,0.1450381679389313,0.2748091603053435
62,-0.2822265625,0.326171875,0.876220703125,-1.9770992366412214,0.2900763358778626,0.46564885496183206
63,-0.281982421875,0.326416015625,0.873046875,-1.8625954198473282,0.33587786259541985,0.08396946564885496
64,-0.28076171875,0.325927734375,0.87353515625,-1.549618320610687,0.549618320610687,0.2595419847328244
65,-0.285888671875,0.324951171875,0.8740234375,-1.7404580152671756,0.366412213740458,-0.04580152671755725
66,-0.282470703125,0.326171875,0.87744140625,-1.7786259541984732,0.3511450381679389,0.1297709923664122
67,-0.281494140625,0.327880859375,0.875732421875,-1.8473282442748091,-0.007633587786259542,0.1984732824427481
68,-0.2802734375,0.328369140625,0.87744140625,-1.7709923664122138,0.24427480916030533,0.35877862595419846
69,-0.28125,0.32470703125,0.870849609375,-1.8702290076335877,0.2824427480916031,0.25190839694656486
70,-0.2822265625,0.32763671875,0.87255859375,-2.053435114503817,0.4198473282442748,0.26717557251908397
71,-0.2822265625,0.32421875,0.87548828125,-1.83206106870229,0.3053435114503817,0.3435114503816794
72,-0.28173828125,0.327880859375,0.875,-1.8931297709923665,0.2595419847328244,0.19083969465648856
73,-0.283203125,0.327392578125,0.870849609375,-1.4885496183206106,0.3282442748091603,0.25190839694656486
74,-0.282470703125,0.331787109375,0.876220703125,-1.8396946564885497,0.19083969465648856,0.10687022900763359
75,-0.288330078125,0.32763671875,0.871337890625,-1.8854961832061068,0.4122137404580153,0.25190839694656486
76,-0.28173828125,0.327880859375,0.873291015625,-1.9083969465648856,0.05343511450381679,-0.015267175572519083
77,-0.282470703125,0.32666015625,0.876708984375,-1.9541984732824427,0.3816793893129771,0.2595419847328244
78,-0.281982421875,0.329833984375,0.87451171875,-1.9694656488549618,0.183206106870229,0.22137404580152673
79,-0.282958984375,0.3271484375,0.869384765625,-1.984732824427481,0.3282442748091603,0.022900763358778626
80,-0.27880859375,0.3271484375,0.87109375,-1.9312977099236641,0.11450381679389313,0.13740458015267176
81,-0.28369140625,0.32763671875,0.87255859375,-2.0229007633587788,0.366412213740458,0.1984732824427481
82,-0.284423828125,0.32568359375,0.869873046875,-1.816793893129771,0.015267175572519083,0.4198473282442748
83,-0.28515625,0.328369140625,0.870849609375,-1.9312977099236641,0.10687022900763359,0.1984732824427481
84,-0.28369140625,0.329345703125,0.87841796875,-1.8778625954198473,0.25190839694656486,0.20610687022900764
85,-0.28125,0.32763671875,0.8720703125,-1.5114503816793894,0.26717557251908397,0.1984732824427481
86,-0.282958984375,0.326416015625,0.877197265625,-1.9465648854961832,0.11450381679389313,0.4580152671755725
87,-0.286376953125,0.33056640625,0.877197265625,-1.5572519083969465,0.183206106870229,0.1450381679389313
88,-0.2861328125,0.329345703125,0.869873046875,-1.786259541984733,0.33587786259541985,0.007633587786259542
89,-0.282470703125,0.328369140625,0.871337890625,-1.5725190839694656,0.13740458015267176,0.366412213740458
90,-0.2841796875,0.329833984375,0.871337890625,-1.8625954198473282,0.5267175572519084,0.21374045801526717
91,-0.284912109375,0.32666015625,0.8720703125,-1.8549618320610688,-0.007633587786259542,0.3816793893129771
92,-0.28125,0.324951171875,0.869873046875,-1.7633587786259541,0.16030534351145037,0.26717557251908397
93,-0.28271484375,0.327392578125,0.874267578125,-1.8091603053435115,0.37404580152671757,0.19083969465648856
94,-0.28515625,0.326904296875,0.871337890625,-1.9618320610687023,0.25190839694656486,0.1297709923664122
95,-0.285400390625,0.327880859375,0.872314453125,-1.8778625954198473,0.2900763358778626,0.24427480916030533
96,-0.28564453125,0.3251953125,0.880615234375,-1.8396946564885497,0.7022900763358778,0.22137404580152673
97,-0.28515625,0.327392578125,0.8720703125,-1.8778625954198473,0.25190839694656486,0.21374045801526717
98,-0.28076171875,0.330322265625,0.868408203125,-1.9312977099236641,0.06870229007633588,0.015267175572519083
99,-0.281494140625,0.326416015625,0.87353515625,-1.6106870229007633,0.08396946564885496,0.3511450381679389
100,-0.281982421875,0.330810546875,0.874267578125,-1.8091603053435115,0.13740458015267176,0.13740458015267176
101,-0.28125,0.32568359375,0.872802734375,-1.9083969465648856,0.1450381679389313,0.20610687022900764
102,-0.28369140625,0.3291015625,0.8759765625,-1.6870229007633588,0.09923664122137404,0.16030534351145037
103,-0.283203125,0.3271484375,0.870849609375,-1.5267175572519085,0.5190839694656488,0.25190839694656486
104,-0.281494140625,0.327392578125,0.87451171875,-1.8854961832061068,0.22137404580152673,0.1297709923664122
105,-0.27783203125,0.328125,0.87109375,-1.8015267175572518,0.24427480916030533,0.45038167938931295
106,-0.281982421875,0.329345703125,0.874755859375,-2.2748091603053435,0.17557251908396945,0.22137404580152673
107,-0.28173828125,0.327880859375,0.869873046875,-1.7633587786259541,0.40458015267175573,0.06870229007633588
108,-0.280517578125,0.33203125,0.871826171875,-1.7404580152671756,0.32061068702290074,0.2748091603053435
109,-0.280517578125,0.328369140625,0.8701171875,-1.717557251908397,0.04580152671755725,0.4122137404580153
110,-0.286376953125,0.32763671875,0.86865234375,-1.7633587786259541,0.6183206106870229,0.13740458015267176
111,-0.279052734375,0.33154296875,0.87890625,-1.8854961832061068,0.1984732824427481,0.1984732824427481
112,-0.28173828125,0.327880859375,0.8779296875,-1.9541984732824427,0.33587786259541985,0.11450381679389313
113,-0.2841796875,0.32470703125,0.875244140625,-1.8473282442748091,0.20610687022900764,0.3435114503816794
114,-0.28564453125,0.330322265625,0.866943359375,-1.9541984732824427,0.07633587786259542,0.3969465648854962
115,-0.281982421875,0.326416015625,0.8779296875,-1.984732824427481,0.2824427480916031,0.2900763358778626
116,-0.281982421875,0.3330078125,0.874267578125,-1.6106870229007633,0.3053435114503817,-0.015267175572519083
117,-0.280029296875,0.32958984375,0.87451171875,-1.8473282442748091,-0.05343511450381679,0.22137404580152673
118,-0.284423828125,0.326416015625,0.87255859375,-1.7786259541984732,0.4580152671755725,0.33587786259541985
119,-0.2822265625,0.32763671875,0.87109375,-1.7938931297709924,-0.007633587786259542,0.31297709923664124
120,-0.28125,0.3251953125,0.8720703125,-2.0229007633587788,0.5343511450381679,0.37404580152671757
121,-0.283203125,0.329345703125,0.875732421875,-1.8015267175572518,0.24427480916030533,0.25190839694656486
122,-0.28466796875,0.326416015625,0.8720703125,-1.702290076335878,0.20610687022900764,0.16793893129770993
123,-0.283203125,0.327880859375,0.87060546875,-1.7633587786259541,0.6412213740458015,0.25190839694656486
124,-0.281005859375,0.328125,0.871826171875,-1.6641221374045803,0.11450381679389313,0.24427480916030533
125,-0.282958984375,0.327392578125,0.875732421875,-1.6259541984732824,0.3893129770992366,0.5877862595419847
126,-0.277099609375,0.3251953125,0.875732421875,-1.8702290076335877,0.10687022900763359,0.32061068702290074
127,-0.283203125,0.328369140625,0.873779296875,-1.6564885496183206,0.5572519083969466,0.022900763358778626
128,-0.282958984375,0.3310546875,0.867919921875,-1.9312977099236641,0.17557251908396945,0.2366412213740458
129,-0.2841796875,0.326416015625,0.865966796875,-1.7404580152671756,0.33587786259541985,0.12213740458015267
130,-0.279296875,0.3291015625,0.878173828125,-1.8244274809160306,0.1450381679389313,0.2824427480916031
131,-0.2841796875,0.3251953125,0.865478515625,-1.816793893129771,0.4122137404580153,0.3511450381679389
132,-0.282958984375,0.326171875,0.8740234375,-1.6793893129770991,-0.15267175572519084,0.366412213740458
133,-0.27734375,0.329833984375,0.87109375,-1.984732824427481,0.19083969465648856,0.13740458015267176
134,-0.282470703125,0.32958984375,0.8701171875,-1.8091603053435115,0.3053435114503817,0.4351145038167939
135,-0.2822265625,0.326904296875,0.87451171875,-1.83206106870229,0.12213740458015267,0.3511450381679389
136,-0.281982421875,0.326904296875,0.8701171875,-1.8931297709923665,0.2595419847328244,0.2824427480916031
137,-0.286865234375,0.329345703125,0.869140625,-1.984732824427481,0.16793893129770993,0.0
138,-0.281494140625,0.328369140625,0.876220703125,-1.8396946564885497,0.35877862595419846,0.3893129770992366
139,-0.28369140625,0.3291015625,0.870361328125,-1.8396946564885497,0.3893129770992366,0.22900763358778625
140,-0.283447265625,0.327392578125,0.87255859375,-1.8396946564885497,0.183206106870229,0.3969465648854962
141,-0.28662109375,0.329833984375,0.87451171875,-1.8015267175572518,0.08396946564885496,0.3282442748091603
142,-0.282958984375,0.32958984375,0.87646484375,-1.9770992366412214,0.33587786259541985,0.25190839694656486
143,-0.281005859375,0.32958984375,0.873291015625,-1.8549618320610688,0.31297709923664124,0.3816793893129771
144,-0.28271484375,0.330322265625,0.8681640625,-1.6030534351145038,0.45038167938931295,0.030534351145038167
145,-0.2802734375,0.32421875,0.870361328125,-1.900763358778626,0.29770992366412213,0.0
146,-0.28466796875,0.330078125,0.869873046875,-1.83206106870229,0.1984732824427481,0.16030534351145037
147,-0.28515625,0.33349609375,0.873291015625,-1.6870229007633588,0.2366412213740458,0.22137404580152673
148,-0.28173828125,0.32666015625,0.876708984375,-1.916030534351145,0.5038167938931297,0.37404580152671757
149,-0.283935546875,0.328369140625,0.874267578125,-1.6106870229007633,0.17557251908396945,0.48854961832061067
150,-0.282470703125,0.330078125,0.8740234375,-1.9236641221374047,0.3282442748091603,0.5801526717557252
151,-0.287841796875,0.323974609375,0.87841796875,-2.015267175572519,0.20610687022900764,0.1984732824427481
152,-0.281494140625,0.33056640625,0.87060546875,-1.8396946564885497,0.09923664122137404,0.2824427480916031
153,-0.2802734375,0.326171875,0.866943359375,-1.6717557251908397,0.11450381679389313,0.12213740458015267
154,-0.2822265625,0.322265625,0.874755859375,-1.748091603053435,0.10687022900763359,0.030534351145038167
155,-0.283203125,0.3271484375,0.872802734375,-1.9236641221374047,0.22137404580152673,0.10687022900763359
156,-0.284912109375,0.32763671875,0.8740234375,-1.786259541984733,0.22137404580152673,0.022900763358778626
157,-0.28173828125,0.3291015625,0.874755859375,-1.748091603053435,0.2595419847328244,0.13740458015267176
158,-0.282470703125,0.327392578125,0.87060546875,-1.9694656488549618,0.21374045801526717,0.1297709923664122
159,-0.28076171875,0.327880859375,0.873779296875,-1.6259541984732824,0.29770992366412213,0.022900763358778626
160,-0.2861328125,0.32861328125,0.873291015625,-1.8702290076335877,0.4580152671755725,0.3435114503816794
161,-0.2802734375,0.32861328125,0.879638671875,-1.6717557251908397,0.4580152671755725,0.16793893129770993
162,-0.28125,0.324951171875,0.874267578125,-1.8854961832061068,0.45038167938931295,0.08396946564885496
163,-0.280517578125,0.324951171875,0.872802734375,-1.7938931297709924,0.17557251908396945,0.0
164,-0.281982421875,0.32568359375,0.871826171875,-1.9236641221374047,0.3816793893129771,0.31297709923664124
165,-0.280029296875,0.326416015625,0.8740234375,-1.6259541984732824,0.09923664122137404,0.13740458015267176
166,-0.28271484375,0.32666015625,0.873779296875,-1.83206106870229,0.31297709923664124,0.31297709923664124
167,-0.283935546875,0.328857421875,0.87744140625,-1.7633587786259541,0.2366412213740458,0.24427480916030533
168,-0.282470703125,0.327392578125,0.869384765625,-1.7404580152671756,0.19083969465648856,0.2595419847328244
169,-0.28125,0.32666015625,0.869140625,-1.717557251908397,0.20610687022900764,0.15267175572519084
170,-0.2861328125,0.32861328125,0.872802734375,-1.5267175572519085,0.22137404580152673,0.2748091603053435
171,-0.280029296875,0.324951171875,0.871337890625,-1.8854961832061068,-0.030534351145038167,0.1450381679389313
172,-0.285400390625,0.32763671875,0.874267578125,-1.8244274809160306,0.4351145038167939,0.3969465648854962
173,-0.282958984375,0.325439453125,0.872314453125,-1.6030534351145038,0.10687022900763359,0.26717557251908397
174,-0.279541015625,0.3251953125,0.87451171875,-1.6946564885496183,0.25190839694656486,0.22900763358778625
175,-0.283203125,0.32666015625,0.873291015625,-1.618320610687023,0.32061068702290074,0.24427480916030533
176,-0.2783203125,0.327880859375,0.876708984375,-1.717557251908397,0.26717557251908397,0.061068702290076333
177,-0.28173828125,0.32568359375,0.8759765625,-1.816793893129771,0.0916030534351145,0.24427480916030533
178,-0.27880859375,0.3271484375,0.872314453125,-1.816793893129771,0.17557251908396945,0.19083969465648856
179,-0.28125,0.3271484375,0.86474609375,-1.916030534351145,0.3053435114503817,0.21374045801526717
180,-0.285888671875,0.32861328125,0.874755859375,-1.7404580152671756,0.05343511450381679,0.183206106870229
181,-0.281005859375,0.3330078125,0.87353515625,-1.4885496183206106,0.25190839694656486,0.21374045801526717
182,-0.28125,0.326904296875,0.872802734375,-1.7633587786259541,0.183206106870229,0.32061068702290074
183,-0.284423828125,0.328857421875,0.870849609375,-1.8549618320610688,0.17557251908396945,0.5038167938931297
184,-0.2861328125,0.325927734375,0.8720703125,-1.8931297709923665,0.29770992366412213,0.09923664122137404
185,-0.2841796875,0.330322265625,0.875,-1.8396946564885497,-0.030534351145038167,0.3435114503816794
186,-0.28125,0.327392578125,0.87255859375,-1.786259541984733,0.2824427480916031,0.20610687022900764
187,-0.28515625,0.32861328125,0.87255859375,-1.748091603053435,0.21374045801526717,0.11450381679389313
188,-0.282958984375,0.329345703125,0.879150390625,-1.6793893129770991,0.4580152671755725,0.2366412213740458
189,-0.279541015625,0.32763671875,0.87158203125,-1.786259541984733,0.3282442748091603,0.16793893129770993
190,-0.281982421875,0.32470703125,0.876220703125,-1.6259541984732824,0.21374045801526717,0.4961832061068702
191,-0.28466796875,0.326904296875,0.871337890625,-1.9389312977099236,0.030534351145038167,0.42748091603053434
192,-0.283447265625,0.3291015625,0.8671875,-1.7786259541984732,0.1450381679389313,0.3282442748091603
193,-0.28125,0.325439453125,0.873291015625,-1.6412213740458015,-0.07633587786259542,0.2824427480916031
194,-0.28125,0.32470703125,0.876953125,-1.8091603053435115,0.183206106870229,0.29770992366412213
195,-0.283203125,0.330078125,0.873291015625,-1.9389312977099236,0.3511450381679389,0.35877862595419846
196,-0.285400390625,0.326904296875,0.8671875,-1.8854961832061068,0.3282442748091603,0.366412213740458
197,-0.282958984375,0.3271484375,0.8740234375,-1.8549618320610688,-0.1297709923664122,0.22900763358778625
198,-0.2822265625,0.326904296875,0.86962890625,-1.9312977099236641,0.22137404580152673,0.16030534351145037
199,-0.28466796875,0.328125,0.871826171875,-2.0076335877862594,0.25190839694656486,0.16030534351145037
200,-0.281494140625,0.328125,0.8759765625,-1.786259541984733,0.0916030534351145,0.0
201,-0.2763671875,0.334228515625,0.87548828125,-1.9465648854961832,0.3511450381679389,0.16793893129770993
202,-0.283935546875,0.33154296875,0.869873046875,-2.030534351145038,0.45038167938931295,0.15267175572519084
203,-0.281982421875,0.328125,0.873046875,-2.0076335877862594,0.3282442748091603,-0.04580152671755725
204,-0.28369140625,0.326171875,0.8740234375,-1.816793893129771,0.2366412213740458,0.06870229007633588
205,-0.279296875,0.3251953125,0.87060546875,-1.6412213740458015,-0.022900763358778626,0.19083969465648856
206,-0.28515625,0.328369140625,0.879638671875,-1.6564885496183206,0.4122137404580153,0.22137404580152673
207,-0.283935546875,0.327392578125,0.87353515625,-1.7557251908396947,0.3511450381679389,0.26717557251908397
208,-0.281005859375,0.329345703125,0.8759765625,-1.9083969465648856,0.3511450381679389,0.2595419847328244
209,-0.28515625,0.330810546875,0.873779296875,-1.8625954198473282,0.12213740458015267,0.11450381679389313
210,-0.28271484375,0.32861328125,0.873779296875,-1.9083969465648856,0.12213740458015267,0.10687022900763359
211,-0.28466796875,0.324462890625,0.871337890625,-1.816793893129771,0.37404580152671757,0.06870229007633588
212,-0.28515625,0.32861328125,0.873291015625,-1.717557251908397,-0.08396946564885496,0.44274809160305345
213,-0.280517578125,0.327392578125,0.874267578125,-1.83206106870229,0.183206106870229,0.3435114503816794
214,-0.285888671875,0.32421875,0.868408203125,-1.8396946564885497,0.05343511450381679,0.17557251908396945
215,-0.281494140625,0.330322265625,0.875244140625,-1.7633587786259541,0.2824427480916031,0.25190839694656486
216,-0.283935546875,0.3291015625,0.87890625,-1.8854961832061068,0.13740458015267176,0.3893129770992366
217,-0.283447265625,0.329345703125,0.876708984375,-1.816793893129771,0.24427480916030533,0.3511450381679389
218,-0.28369140625,0.325927734375,0.872314453125,-1.900763358778626,0.2748091603053435,0.33587786259541985
219,-0.283447265625,0.32861328125,0.873046875,-1.9312977099236641,0.007633587786259542,0.022900763358778626
220,-0.277099609375,0.326416015625,0.88037109375,-1.9465648854961832,0.37404580152671757,-0.03816793893129771
221,-0.28369140625,0.32958984375,0.876708984375,-1.7099236641221374,0.26717557251908397,0.3893129770992366
222,-0.284912109375,0.324951171875,0.873046875,-1.9770992366412214,0.29770992366412213,0.366412213740458
223,-0.28173828125,0.330322265625,0.877685546875,-1.8091603053435115,0.5038167938931297,0.2366412213740458
224,-0.284912109375,0.331298828125,0.8779296875,-1.8091603053435115,0.15267175572519084,0.5725190839694656
225,-0.282958984375,0.33056640625,0.87646484375,-1.7404580152671756,0.31297709923664124,0.24427480916030533
226,-0.281005859375,0.32958984375,0.8759765625,-1.786259541984733,0.05343511450381679,0.31297709923664124
227,-0.2802734375,0.328369140625,0.873046875,-1.7709923664122138,0.19083969465648856,-0.05343511450381679
228,-0.281005859375,0.328369140625,0.87646484375,-1.8854961832061068,0.10687022900763359,0.2824427480916031
229,-0.284912109375,0.326416015625,0.879150390625,-1.717557251908397,0.26717557251908397,0.15267175572519084
230,-0.28369140625,0.325927734375,0.876708984375,-1.8931297709923665,0.07633587786259542,0.32061068702290074
231,-0.28125,0.325927734375,0.865478515625,-1.8931297709923665,0.3053435114503817,0.4351145038167939
232,-0.283447265625,0.328369140625,0.8779296875,-1.6717557251908397,0.31297709923664124,0.20610687022900764
233,-0.281005859375,0.32958984375,0.874267578125,-1.6946564885496183,0.3893129770992366,0.2366412213740458
234,-0.285400390625,0.329345703125,0.8720703125,-1.5267175572519085,0.2900763358778626,0.26717557251908397
235,-0.283447265625,0.32763671875,0.87158203125,-1.748091603053435,0.07633587786259542,0.15267175572519084
236,-0.28125,0.328369140625,0.8759765625,-1.748091603053435,0.10687022900763359,0.2595419847328244
237,-0.281494140625,0.328125,0.8759765625,-1.8702290076335877,0.2366412213740458,0.20610687022900764
238,-0.281494140625,0.32470703125,0.870849609375,-1.8473282442748091,0.3969465648854962,0.2824427480916031
239,-0.28515625,0.3291015625,0.877197265625,-1.717557251908397,0.33587786259541985,-0.1297709923664122
240,-0.283447265625,0.328125,0.875,-1.7404580152671756,-0.05343511450381679,0.09923664122137404
241,-0.285888671875,0.325439453125,0.8671875,-1.7709923664122138,0.2824427480916031,0.061068702290076333
242,-0.2802734375,0.32958984375,0.87158203125,-1.8625954198473282,0.3816793893129771,0.5114503816793893
243,-0.285888671875,0.32861328125,0.87158203125,-1.6488549618320612,0.022900763358778626,-0.03816793893129771
244,-0.28369140625,0.326416015625,0.8759765625,-1.7633587786259541,0.5267175572519084,0.3893129770992366
245,-0.28564453125,0.327392578125,0.87744140625,-1.9236641221374047,0.1297709923664122,0.42748091603053434
246,-0.28173828125,0.325439453125,0.872314453125,-1.7709923664122138,0.15267175572519084,0.183206106870229
247,-0.280517578125,0.328369140625,0.87158203125,-1.6412213740458015,0.1297709923664122,0.2748091603053435
248,-0.281982421875,0.3310546875,0.878662109375,-1.7328244274809161,0.1450381679389313,0.22137404580152673
249,-0.2802734375,0.32861328125,0.8740234375,-1.717557251908397,0.1450381679389313,0.25190839694656486
250,-0.2822265625,0.33056640625,0.87158203125,-1.7786259541984732,0.2595419847328244,0.366412213740458
251,-0.279541015625,0.32958984375,0.876953125,-1.6412213740458015,0.06870229007633588,0.22900763358778625
252,-0.283935546875,0.32958984375,0.873046875,-1.8702290076335877,0.3893129770992366,0.3893129770992366
253,-0.2822265625,0.32861328125,0.869873046875,-1.7557251908396947,0.12213740458015267,0.2595419847328244
254,-0.281982421875,0.3251953125,0.87255859375,-1.6793893129770991,0.22900763358778625,0.21374045801526717
255,-0.283203125,0.3232421875,0.870849609375,-1.7633587786259541,0.16793893129770993,0.08396946564885496
256,-0.27978515625,0.327392578125,0.87255859375,-1.9083969465648856,0.16793893129770993,0.4198473282442748
257,-0.279541015625,0.32666015625,0.873046875,-1.9312977099236641,0.2900763358778626,0.4122137404580153
258,-0.280517578125,0.329345703125,0.87255859375,-1.534351145038168,0.3969465648854962,0.3053435114503817
259,-0.28564453125,0.32373046875,0.874755859375,-1.748091603053435,0.16030534351145037,0.06870229007633588
260,-0.286865234375,0.329345703125,0.872314453125,-1.83206106870229,0.5572519083969466,0.29770992366412213
261,-0.284423828125,0.324462890625,0.87744140625,-1.916030534351145,0.4122137404580153,0.24427480916030533
262,-0.282470703125,0.3310546875,0.878173828125,-2.0229007633587788,0.33587786259541985,0.1984732824427481
263,-0.28173828125,0.325927734375,0.8740234375,-1.7938931297709924,0.3511450381679389,0.12213740458015267
264,-0.28173828125,0.3271484375,0.87646484375,-1.9465648854961832,0.3053435114503817,0.32061068702290074
265,-0.28466796875,0.32666015625,0.873046875,-1.9312977099236641,0.5648854961832062,0.32061068702290074
266,-0.28173828125,0.33154296875,0.869140625,-1.900763358778626,0.24427480916030533,0.21374045801526717
267,-0.281005859375,0.327880859375,0.870849609375,-1.8702290076335877,0.16793893129770993,0.3816793893129771
268,-0.283935546875,0.32568359375,0.87451171875,-1.6564885496183206,0.183206106870229,0.16793893129770993
269,-0.28466796875,0.328857421875,0.87744140625,-1.900763358778626,0.06870229007633588,0.33587786259541985
270,-0.281982421875,0.3291015625,0.875732421875,-1.7709923664122138,0.12213740458015267,0.21374045801526717
271,-0.282470703125,0.324462890625,0.8720703125,-1.7404580152671756,0.16030534351145037,0.0916030534351145
272,-0.282470703125,0.3291015625,0.873291015625,-1.8549618320610688,0.31297709923664124,0.1297709923664122
273,-0.28173828125,0.3291015625,0.873291015625,-1.8473282442748091,0.16030534351145037,0.2595419847328244
274,-0.28271484375,0.330322265625,0.871826171875,-1.7786259541984732,0.22137404580152673,0.06870229007633588
275,-0.284423828125,0.327880859375,0.8798828125,-1.8778625954198473,0.3282442748091603,0.16793893129770993
276,-0.2841796875,0.328857421875,0.87158203125,-1.6870229007633588,0.33587786259541985,0.2824427480916031
277,-0.28271484375,0.328125,0.87353515625,-1.7786259541984732,0.05343511450381679,0.16793893129770993
278,-0.284423828125,0.33056640625,0.876220703125,-1.5877862595419847,-0.022900763358778626,0.31297709923664124
279,-0.281982421875,0.32958984375,0.876708984375,-1.7633587786259541,0.4351145038167939,0.366412213740458
280,-0.285400390625,0.329345703125,0.8701171875,-1.6030534351145038,-0.03816793893129771,0.19083969465648856
281,-0.281982421875,0.33203125,0.875,-1.8473282442748091,0.15267175572519084,0.4122137404580153
282,-0.278564453125,0.327392578125,0.8681640625,-1.8473282442748091,0.3053435114503817,0.31297709923664124
283,-0.283203125,0.329345703125,0.8779296875,-1.9770992366412214,0.2366412213740458,0.08396946564885496
284,-0.28271484375,0.328125,0.878173828125,-1.8625954198473282,0.22900763358778625,0.22900763358778625
285,-0.282470703125,0.330322265625,0.871826171875,-1.900763358778626,0.5267175572519084,-0.022900763358778626
286,-0.28515625,0.326904296875,0.8740234375,-1.7786259541984732,0.32061068702290074,0.2595419847328244
287,-0.28466796875,0.3271484375,0.87255859375,-1.9236641221374047,0.09923664122137404,0.15267175572519084
288,-0.28076171875,0.32861328125,0.871337890625,-1.8854961832061068,0.40458015267175573,0.09923664122137404
289,-0.28271484375,0.327880859375,0.873291015625,-1.748091603053435,0.26717557251908397,0.20610687022900764
290,-0.28125,0.32958984375,0.8759765625,-1.7557251908396947,0.183206106870229,0.2900763358778626
291,-0.28564453125,0.32763671875,0.872314453125,-1.916030534351145,0.19083969465648856,0.09923664122137404
292,-0.281005859375,0.324462890625,0.869384765625,-1.7251908396946565,0.4198473282442748,0.21374045801526717
293,-0.28271484375,0.328125,0.873046875,-1.6488549618320612,0.1297709923664122,0.08396946564885496
294,-0.281005859375,0.328125,0.87353515625,-1.9083969465648856,0.21374045801526717,0.3053435114503817
295,-0.2783203125,0.327392578125,0.86962890625,-2.045801526717557,0.007633587786259542,0.25190839694656486
296,-0.282470703125,0.3271484375,0.8740234375,-1.8854961832061068,0.2595419847328244,-0.03816793893129771
297,-0.284423828125,0.327880859375,0.877685546875,-1.9465648854961832,0.09923664122137404,0.2748091603053435
298,-0.27880859375,0.33056640625,0.866943359375,-1.717557251908397,0.16793893129770993,0.007633587786259542
299,-0.28466796875,0.328857421875,0.8720703125,-1.9541984732824427,-0.11450381679389313,0.26717557251908397
300,-0.283935546875,0.330078125,0.870849609375,-2.0229007633587788,0.0916030534351145,0.07633587786259542
301,-0.27978515625,0.332763671875,0.871337890625,-2.0076335877862594,0.0,0.37404580152671757
302,-0.28466796875,0.326416015625,0.87451171875,-1.7557251908396947,-0.04580152671755725,0.4198473282442748
303,-0.27978515625,0.326171875,0.873779296875,-1.9694656488549618,0.007633587786259542,0.06870229007633588
304,-0.280517578125,0.32958984375,0.868408203125,-1.8702290076335877,0.3053435114503817,0.05343511450381679
305,-0.279541015625,0.326416015625,0.8740234375,-1.702290076335878,0.44274809160305345,0.15267175572519084
306,-0.281494140625,0.32763671875,0.870361328125,-1.9541984732824427,0.11450381679389313,0.030534351145038167
307,-0.28125,0.328369140625,0.869384765625,-1.8931297709923665,0.22900763358778625,0.16030534351145037
308,-0.282470703125,0.32763671875,0.878173828125,-1.816793893129771,0.11450381679389313,0.2900763358778626
309,-0.2822265625,0.327392578125,0.874267578125,-1.8931297709923665,0.25190839694656486,0.2900763358778626
310,-0.286865234375,0.32958984375,0.873046875,-1.8625954198473282,0.42748091603053434,0.12213740458015267
311,-0.28125,0.326171875,0.875732421875,-1.717557251908397,0.4732824427480916,0.40458015267175573
312,-0.285400390625,0.32568359375,0.87255859375,-2.015267175572519,0.2900763358778626,0.1450381679389313
313,-0.286376953125,0.3271484375,0.87646484375,-1.8244274809160306,0.5267175572519084,0.15267175572519084
314,-0.283203125,0.326904296875,0.873046875,-1.8091603053435115,0.46564885496183206,0.2824427480916031
315,-0.28564453125,0.326416015625,0.87548828125,-1.8396946564885497,0.35877862595419846,0.35877862595419846
316,-0.281005859375,0.32958984375,0.874755859375,-1.9618320610687023,0.15267175572519084,0.22137404580152673
317,-0.282958984375,0.32421875,0.869140625,-1.6870229007633588,0.24427480916030533,0.21374045801526717
318,-0.280517578125,0.3330078125,0.871337890625,-1.9465648854961832,0.1297709923664122,0.24427480916030533
319,-0.2841796875,0.334228515625,0.87353515625,-1.7404580152671756,0.20610687022900764,0.5725190839694656
320,-0.283447265625,0.325927734375,0.8740234375,-1.6564885496183206,0.26717557251908397,-0.1984732824427481
321,-0.28564453125,0.3271484375,0.875732421875,-1.816793893129771,0.46564885496183206,0.15267175572519084
322,-0.282958984375,0.329345703125,0.87646484375,-1.8549618320610688,-0.061068702290076333,0.3511450381679389
323,-0.2861328125,0.33056640625,0.874755859375,-1.900763358778626,0.3816793893129771,0.22137404580152673
324,-0.282470703125,0.3291015625,0.87109375,-1.8091603053435115,0.04580152671755725,0.29770992366412213
325,-0.283935546875,0.325439453125,0.878173828125,-1.8396946564885497,0.20610687022900764,-0.0916030534351145
326,-0.280029296875,0.328125,0.877197265625,-1.9770992366412214,0.4198473282442748,0.5038167938931297
327,-0.281005859375,0.327880859375,0.87109375,-1.7328244274809161,0.26717557251908397,0.3053435114503817
328,-0.28125,0.325927734375,0.874755859375,-1.7404580152671756,0.022900763358778626,-0.007633587786259542
329,-0.281005859375,0.327392578125,0.876953125,-1.7557251908396947,0.20610687022900764,0.29770992366412213
330,-0.281982421875,0.327392578125,0.877197265625,-1.8778625954198473,-0.022900763358778626,0.37404580152671757
331,-0.28173828125,0.3291015625,0.87255859375,-1.8549618320610688,0.25190839694656486,0.25190839694656486
332,-0.28369140625,0.33203125,0.87646484375,-1.633587786259542,0.19083969465648856,0.32061068702290074
333,-0.282958984375,0.326904296875,0.869873046875,-1.7709923664122138,-0.030534351145038167,0.08396946564885496
334,-0.28369140625,0.3251953125,0.875,-1.8091603053435115,0.0916030534351145,0.20610687022900764
335,-0.284423828125,0.327392578125,0.877197265625,-1.7633587786259541,0.48854961832061067,0.2366412213740458
336,-0.285400390625,0.328369140625,0.876220703125,-1.8015267175572518,0.22900763358778625,0.22900763358778625
337,-0.28173828125,0.326904296875,0.87548828125,-1.984732824427481,0.31297709923664124,0.37404580152671757
338,-0.287353515625,0.32861328125,0.874755859375,-1.8015267175572518,0.007633587786259542,0.183206106870229
339,-0.281982421875,0.327880859375,0.870849609375,-1.984732824427481,0.4732824427480916,0.4351145038167939
340,-0.2841796875,0.327880859375,0.87158203125,-1.6793893129770991,0.44274809160305345,0.5190839694656488
341,-0.283935546875,0.332763671875,0.875,-1.9236641221374047,0.3893129770992366,0.40458015267175573
342,-0.283935546875,0.328857421875,0.872802734375,-2.0610687022900764,0.17557251908396945,0.16030534351145037
343,-0.282958984375,0.327392578125,0.871826171875,-1.7328244274809161,0.33587786259541985,0.3053435114503817
344,-0.283447265625,0.329345703125,0.87451171875,-1.83206106870229,0.07633587786259542,0.3816793893129771
345,-0.28515625,0.3291015625,0.879150390625,-2.0381679389312977,0.08396946564885496,0.04580152671755725
346,-0.278564453125,0.328369140625,0.8720703125,-1.8854961832061068,0.17557251908396945,-0.007633587786259542
347,-0.28515625,0.33056640625,0.873046875,-1.6106870229007633,0.007633587786259542,0.16030534351145037
348,-0.28173828125,0.33056640625,0.87548828125,-1.9923664122137406,0.11450381679389313,0.13740458015267176
349,-0.28271484375,0.325439453125,0.878173828125,-0.2948854961832059,0.04793893129770993,0.26763358778625956
350,-0.279541015625,0.330810546875,0.878173828125,0.0333587786259546,-0.03603053435114503,-0.03007633587786257
351,-0.283935546875,0.32666015625,0.87255859375,-0.020076335877862395,0.03267175572519082,0.03862595419847331
352,-0.280029296875,0.32861328125,0.877197265625,0.14022900763358814,0.17770992366412214,0.17603053435114507
353,-0.28076171875,0.326171875,0.879150390625,0.010458015267175824,0.15480916030534353,-0.2590839694656488
354,-0.282470703125,0.32861328125,0.87548828125,0.09442748091603081,0.040305343511450376,-0.19038167938931294
355,-0.280517578125,0.32666015625,0.87255859375,-0.18801526717557238,-0.24977099236641223,0.10732824427480919
356,-0.27978515625,0.328125,0.876708984375,0.1631297709923667,-0.21923664122137404,0.015725190839694675
357,-0.28076171875,0.330078125,0.877685546875,-0.11167938931297683,0.040305343511450376,0.015725190839694675
358,-0.282470703125,0.32763671875,0.876220703125,0.30053435114503846,-0.05893129770992367,0.16839694656488552
359,-0.283447265625,0.325927734375,0.876220703125,0.025725190839694934,-0.06656488549618322,-0.03007633587786257
360,-0.283447265625,0.32861328125,0.8779296875,0.04099236641221404,-0.16580152671755727,-0.15221374045801522
361,-0.28173828125,0.326171875,0.875244140625,0.28526717557251935,-0.06656488549618322,0.008091603053435148
362,-0.281005859375,0.325439453125,0.869140625,-0.2185496183206106,0.13954198473282442,0.03862595419847331
363,-0.285888671875,0.330322265625,0.866943359375,0.1631297709923667,-0.04366412213740459,0.023358778625954202
364,-0.283935546875,0.3291015625,0.8671875,0.010458015267175824,0.13954198473282442,0.09206106870229008
365,-0.285400390625,0.328369140625,0.876220703125,0.20129770992366436,-0.28030534351145037,-0.27435114503816793
366,-0.280517578125,0.327392578125,0.876708984375,0.0791603053435117,0.0784732824427481,-0.21328244274809158
367,-0.281494140625,0.328857421875,0.873779296875,-0.08114503816793861,0.0021374045801526576,-0.3430534351145038
368,-0.281982421875,0.328857421875,0.873046875,-0.09641221374045772,-0.013129770992366424,0.023358778625954202
369,-0.284423828125,0.329833984375,0.869384765625,0.07152671755725226,-0.1734351145038168,0.11496183206106875
370,-0.28369140625,0.326416015625,0.870361328125,0.0028244274809163805,0.20061068702290075,0.015725190839694675
371,-0.283935546875,0.32958984375,0.87744140625,0.20129770992366436,-0.12000000000000001,-0.022442748091603015
372,-0.28369140625,0.3310546875,0.874267578125,0.323435114503817,-0.028396946564885506,-0.06061068702290073
373,-0.283447265625,0.3310546875,0.8740234375,0.04099236641221404,-0.005496183206106869,-0.0377099236641221
374,-0.28271484375,0.3310546875,0.87353515625,0.11732824427480937,0.3609160305343511,-0.10641221374045799
375,-0.282958984375,0.328369140625,0.881103515625,0.07152671755725226,0.11664122137404581,-0.0911450381679389
376,-0.282470703125,0.327392578125,0.87158203125,0.1478625954198476,-0.0818320610687023,-0.0377099236641221
377,-0.28369140625,0.3291015625,0.876708984375,0.0791603053435117,0.14717557251908397,0.046259541984732866
378,-0.285400390625,0.324462890625,0.875,0.08679389312977137,0.15480916030534353,-0.40412213740458014
379,-0.281982421875,0.32666015625,0.875,0.10206106870229026,-0.12763358778625955,-0.12167938931297707
380,-0.28173828125,0.32666015625,0.8642578125,-0.1651145038167936,-0.09709923664122139,-0.12931297709923661
381,-0.281494140625,0.328125,0.87451171875,-0.1498473282442745,-0.21923664122137404,-0.022442748091603015
382,-0.282470703125,0.329345703125,0.88134765625,0.14022900763358814,0.0784732824427481,-0.12167938931297707
383,-0.281005859375,0.326904296875,0.872802734375,-0.04297709923664095,0.20061068702290075,-0.09877862595419845
384,-0.2802734375,0.330078125,0.870849609375,0.20129770992366436,-0.1734351145038168,0.26
385,-0.2802734375,0.326171875,0.874755859375,-0.04297709923664095,0.12427480916030531,-0.15221374045801522
386,-0.282958984375,0.3310546875,0.87158203125,-0.012442748091602729,-0.028396946564885506,-0.24381679389312974
387,-0.2841796875,0.328125,0.866455078125,0.13259541984732848,-0.03603053435114503,0.10732824427480919
388,-0.282470703125,0.331298828125,0.86962890625,0.08679389312977137,0.03267175572519082,0.046259541984732866
389,-0.28369140625,0.32470703125,0.87158203125,-0.004809160305343285,0.2540458015267176,-0.08351145038167937
390,-0.28271484375,0.330078125,0.8720703125,0.14022900763358814,0.2616793893129771,-0.06061068702290073
391,-0.28076171875,0.328125,0.870361328125,-0.020076335877862395,0.10900763358778626,-0.06061068702290073
392,-0.281982421875,0.32470703125,0.87744140625,-0.17274809160305304,0.15480916030534353,-0.28198473282442743
393,-0.283203125,0.324951171875,0.871826171875,0.07152671755725226,-0.04366412213740459,0.16076335877862596
394,-0.2822265625,0.32763671875,0.8740234375,0.14022900763358814,-0.2116030534351145,0.06152671755725192
395,-0.28369140625,0.329345703125,0.876708984375,0.04099236641221404,0.0784732824427481,0.03862595419847331
396,-0.281982421875,0.32958984375,0.871337890625,-0.02770992366412184,0.09374045801526715,-0.2667175572519084
397,-0.281982421875,0.32666015625,0.87451171875,-0.1498473282442745,-0.2650381679389313,0.015725190839694675
398,-0.286376953125,0.32568359375,0.875,-0.11931297709923627,-0.1581679389312977,0.030992366412213757
399,-0.283447265625,0.329345703125,0.874267578125,-0.012442748091602729,0.14717557251908397,0.05389312977099242
400,-0.280029296875,0.32763671875,0.868408203125,0.025725190839694934,-0.12763358778625955,0.03862595419847331
401,-0.2802734375,0.32763671875,0.8759765625,-0.11167938931297683,-0.19633587786259543,0.2218320610687023
402,-0.28466796875,0.328125,0.869140625,0.0791603053435117,0.20061068702290075,0.12259541984732825
403,-0.28271484375,0.32568359375,0.867431640625,-0.05824427480916006,0.16244274809160303,-0.2667175572519084
404,-0.283935546875,0.328125,0.877685546875,-0.15748091603053416,0.23877862595419846,0.06916030534351147
405,-0.282958984375,0.32763671875,0.87353515625,-0.05061068702290039,-0.11236641221374047,-0.007175572519083934
406,-0.283935546875,0.329345703125,0.87255859375,0.10969465648854992,-0.028396946564885506,-0.28198473282442743
407,-0.28076171875,0.328857421875,0.86962890625,0.07152671755725226,0.01740458015267174,0.023358778625954202
408,-0.281005859375,0.324462890625,0.8740234375,-0.10404580152671716,-0.12763358778625955,0.19129770992366413
409,-0.28271484375,0.327392578125,0.870849609375,-0.08877862595419828,0.09374045801526715,-0.10641221374045799
410,-0.281982421875,0.322509765625,0.877197265625,0.0028244274809163805,-0.07419847328244275,-0.2361832061068702
411,-0.280029296875,0.328125,0.8759765625,-0.03534351145038128,0.11664122137404581,-0.1445801526717557
412,-0.28173828125,0.32763671875,0.874267578125,-0.020076335877862395,-0.1734351145038168,0.1454961832061069
413,-0.285400390625,0.33056640625,0.874755859375,-0.004809160305343285,0.009770992366412212,-0.06824427480916029
414,-0.284912109375,0.332275390625,0.87353515625,0.05625954198473315,-0.05893129770992367,-0.022442748091603015
415,-0.285888671875,0.325927734375,0.872314453125,-0.12694656488549594,-0.1352671755725191,0.1454961832061069
416,-0.2841796875,0.328857421875,0.880615234375,0.04862595419847349,-0.20396946564885496,0.06152671755725192
417,-0.28564453125,0.328369140625,0.86865234375,-0.10404580152671716,-0.12763358778625955,0.07679389312977103
418,-0.279541015625,0.3251953125,0.866943359375,0.10969465648854992,0.06320610687022898,0.13786259541984736
419,-0.28515625,0.327392578125,0.870849609375,0.08679389312977137,0.2616793893129771,0.16839694656488552
420,-0.284423828125,0.3271484375,0.869873046875,-0.08114503816793861,-0.10473282442748093,0.24473282442748095
421,-0.284912109375,0.325439453125,0.8720703125,0.0638931297709926,0.0784732824427481,-0.052977099236641206
422,-0.281005859375,0.3291015625,0.875,0.15549618320610725,0.12427480916030531,-0.04534351145038165
423,-0.2841796875,0.326416015625,0.869873046875,-0.12694656488549594,0.13954198473282442,0.08442748091603058
424,-0.282958984375,0.327880859375,0.873779296875,0.14022900763358814,-0.013129770992366424,-0.007175572519083934
425,-0.281982421875,0.327880859375,0.8681640625,0.23183206106870258,0.1929770992366412,-0.11404580152671753
426,-0.2841796875,0.32275390625,0.876220703125,0.04099236641221404,0.13190839694656487,0.015725190839694675
427,-0.28076171875,0.326171875,0.87109375,-0.0658778625954195,0.01740458015267174,0.015725190839694675
428,-0.280517578125,0.330810546875,0.87451171875,0.0333587786259546,-0.04366412213740459,0.030992366412213757
429,-0.281005859375,0.329833984375,0.87109375,-0.1498473282442745,-0.02076335877862595,0.06916030534351147
430,-0.2841796875,0.3291015625,0.877197265625,0.0333587786259546,0.22351145038167936,0.09206106870229008
431,-0.2802734375,0.325927734375,0.879150390625,0.010458015267175824,0.22351145038167936,-0.15984732824427478
432,-0.282958984375,0.327392578125,0.87646484375,0.025725190839694934,0.09374045801526715,0.16839694656488552
433,-0.285888671875,0.325439453125,0.877197265625,0.07152671755725226,-0.02076335877862595,-0.0377099236641221
434,-0.28369140625,0.323974609375,0.874755859375,0.010458015267175824,-0.005496183206106869,-0.3048854961832061
435,-0.284912109375,0.32470703125,0.86962890625,0.2623664122137408,0.03267175572519082,-0.08351145038167937
436,-0.28369140625,0.33154296875,0.874755859375,0.3768702290076338,-0.23450381679389315,-0.24381679389312974
437,-0.282470703125,0.327392578125,0.8740234375,-0.11167938931297683,-0.04366412213740459,-0.16748091603053433
438,-0.28466796875,0.3271484375,0.873046875,-0.05061068702290039,0.10900763358778626,-0.1980152671755725
439,-0.286376953125,0.325927734375,0.874267578125,-0.05061068702290039,0.04793893129770993,-0.022442748091603015
440,-0.28173828125,0.32666015625,0.869873046875,-0.19564885496183182,0.0021374045801526576,-0.18274809160305341
441,-0.282470703125,0.326171875,0.87353515625,-0.0658778625954195,-0.05893129770992367,0.3821374045801527
442,-0.2822265625,0.324951171875,0.8720703125,-0.08877862595419828,0.07083969465648854,0.05389312977099242
443,-0.28369140625,0.327392578125,0.8701171875,0.18603053435114525,-0.03603053435114503,-0.022442748091603015
444,-0.281494140625,0.32666015625,0.876708984375,-0.10404580152671716,-0.27267175572519087,-0.15221374045801522
445,-0.2822265625,0.332275390625,0.873046875,0.1478625954198476,-0.10473282442748093,-0.052977099236641206
446,-0.279541015625,0.328857421875,0.87646484375,0.18603053435114525,-0.05129770992366414,-0.10641221374045799
447,-0.282470703125,0.328125,0.88232421875,0.0638931297709926,0.0784732824427481,0.16839694656488552
448,-0.286376953125,0.332763671875,0.865478515625,0.11732824427480937,0.13190839694656487,0.015725190839694675
449,-0.281494140625,0.32666015625,0.87890625,0.025725190839694934,0.055572519083969485,-0.16748091603053433
450,-0.286376953125,0.32177734375,0.874755859375,0.19366412213740491,-0.0818320610687023,-0.04534351145038165
451,-0.279296875,0.3349609375,0.8701171875,0.07152671755725226,0.429618320610687,-0.06824427480916029
452,-0.28076171875,0.3291015625,0.86865234375,0.05625954198473315,0.009770992366412212,0.16076335877862596
453,-0.2861328125,0.32568359375,0.87646484375,-0.02770992366412184,0.12427480916030531,-0.052977099236641206
454,-0.280517578125,0.327392578125,0.871337890625,-0.03534351145038128,-0.23450381679389315,0.11496183206106875
455,-0.285400390625,0.328125,0.8720703125,0.0638931297709926,-0.1734351145038168,-0.007175572519083934
456,-0.277587890625,0.328857421875,0.875244140625,0.20893129770992402,0.09374045801526715,0.19129770992366413
457,-0.2783203125,0.327880859375,0.873779296875,0.0638931297709926,0.03267175572519082,0.11496183206106875
458,-0.283203125,0.327392578125,0.881591796875,-0.14221374045801505,0.20061068702290075,-0.22854961832061066
459,-0.28515625,0.327392578125,0.87109375,0.01809160305343549,-0.05893129770992367,-0.15221374045801522
460,-0.2802734375,0.328125,0.869140625,0.010458015267175824,0.11664122137404581,0.00045801526717559327
461,-0.285888671875,0.3271484375,0.870849609375,0.1478625954198476,-0.013129770992366424,-0.11404580152671753
462,-0.2822265625,0.32470703125,0.872802734375,0.0638931297709926,0.12427480916030531,-0.04534351145038165
463,-0.2841796875,0.32666015625,0.87255859375,0.010458015267175824,-0.11236641221374047,-0.13694656488549617
464,-0.2841796875,0.331787109375,0.87109375,0.10969465648854992,0.009770992366412212,-0.18274809160305341
465,-0.282958984375,0.325927734375,0.87353515625,-0.10404580152671716,0.10900763358778626,-0.0377099236641221
466,-0.286865234375,0.328857421875,0.875732421875,-0.11931297709923627,-0.10473282442748093,0.09969465648854964
467,-0.28759765625,0.330078125,0.87060546875,0.10206106870229026,0.07083969465648854,0.11496183206106875
468,-0.27880859375,0.3251953125,0.885986328125,0.18603053435114525,0.040305343511450376,-0.04534351145038165
469,-0.28564453125,0.32763671875,0.87060546875,0.20129770992366436,0.06320610687022898,-0.19038167938931294
470,-0.281005859375,0.327392578125,0.873779296875,-0.2109160305343507,-0.03603053435114503,0.08442748091603058
471,-0.283935546875,0.326904296875,0.876220703125,0.025725190839694934,-0.05893129770992367,-0.06061068702290073
472,-0.2841796875,0.330810546875,0.870849609375,0.09442748091603081,-0.05129770992366414,0.18366412213740463
473,-0.280029296875,0.32861328125,0.87451171875,-0.2185496183206106,-0.02076335877862595,-0.08351145038167937
474,-0.28369140625,0.32666015625,0.87451171875,0.04099236641221404,0.23877862595419846,0.13786259541984736
475,-0.28125,0.328857421875,0.871826171875,-0.02770992366412184,-0.12000000000000001,0.03862595419847331
476,-0.2841796875,0.3271484375,0.878173828125,-0.08877862595419828,0.2769465648854961,-0.0911450381679389
477,-0.285400390625,0.330078125,0.871826171875,0.0638931297709926,-0.028396946564885506,-0.014809160305343488
478,-0.28173828125,0.328857421875,0.86865234375,-0.08877862595419828,-0.0818320610687023,-0.16748091603053433
479,-0.28759765625,0.33154296875,0.87255859375,0.09442748091603081,-0.07419847328244275,0.05389312977099242
480,-0.28515625,0.32470703125,0.873779296875,-0.25671755725190826,0.03267175572519082,0.1302290076335878
481,-0.287353515625,0.327392578125,0.87255859375,0.23183206106870258,0.17007633587786258,-0.03007633587786257
482,-0.281494140625,0.326171875,0.873291015625,-0.05824427480916006,-0.2116030534351145,0.32870229007633595
483,-0.28173828125,0.327392578125,0.87158203125,-0.17274809160305304,0.055572519083969485,0.00045801526717559327
484,-0.27978515625,0.328369140625,0.871337890625,-0.11931297709923627,-0.1352671755725191,0.08442748091603058
485,-0.285888671875,0.328857421875,0.870849609375,0.01809160305343549,0.13190839694656487,0.1302290076335878
486,-0.283935546875,0.329833984375,0.8759765625,-0.1651145038167936,-0.11236641221374047,-0.22854961832061066
487,-0.2841796875,0.3310546875,0.873291015625,-0.17274809160305304,-0.05893129770992367,-0.06824427480916029
488,-0.2841796875,0.32763671875,0.87744140625,0.0638931297709926,0.025038167938931266,-0.13694656488549617
489,-0.2841796875,0.327392578125,0.87841796875,-0.020076335877862395,0.22351145038167936,-0.06824427480916029
490,-0.28515625,0.33056640625,0.87548828125,0.11732824427480937,-0.0818320610687023,-0.007175572519083934
491,-0.280517578125,0.327392578125,0.875732421875,0.05625954198473315,0.17007633587786258,-0.20564885496183202
492,-0.284912109375,0.32958984375,0.8740234375,-0.012442748091602729,0.07083969465648854,0.19893129770992368
493,-0.28466796875,0.329345703125,0.875,0.010458015267175824,0.2311450381679389,-0.052977099236641206
494,-0.28369140625,0.32421875,0.871337890625,0.04099236641221404,-0.05129770992366414,0.030992366412213757
495,-0.28564453125,0.33251953125,0.869873046875,-0.11931297709923627,0.3151145038167939,0.12259541984732825
496,-0.28125,0.3291015625,0.882568359375,-0.012442748091602729,-0.0818320610687023,0.09969465648854964
497,-0.28173828125,0.328857421875,0.86865234375,0.2623664122137408,-0.06656488549618322,0.00045801526717559327
498,-0.283935546875,0.33154296875,0.87353515625,0.14022900763358814,-0.1352671755725191,-0.08351145038167937
499,-0.2822265625,0.328857421875,0.87744140625,-0.004809160305343285,0.12427480916030531,-0.19038167938931294
500,-0.2802734375,0.32666015625,0.8740234375,0.10969465648854992,-0.15053435114503816,-0.13694656488549617
501,-0.288330078125,0.328369140625,0.876708984375,-0.1498473282442745,-0.04366412213740459,0.046259541984732866
502,-0.282958984375,0.325439453125,0.877197265625,-0.0658778625954195,0.08610687022900765,-0.15984732824427478
503,-0.290283203125,0.32568359375,0.873291015625,-0.12694656488549594,0.040305343511450376,0.09206106870229008
504,-0.28125,0.324951171875,0.879150390625,0.08679389312977137,-0.05129770992366414,0.16076335877862596
505,-0.28173828125,0.330322265625,0.87939453125,-0.13458015267175538,0.13190839694656487,0.030992366412213757
506,-0.285400390625,0.327880859375,0.87451171875,0.04862595419847349,0.0784732824427481,-0.24381679389312974
507,-0.281982421875,0.32861328125,0.87353515625,0.10206106870229026,0.17007633587786258,0.05389312977099242
508,-0.278564453125,0.330078125,0.870849609375,-0.1651145038167936,0.13954198473282442,0.19129770992366413
509,-0.283447265625,0.32958984375,0.87158203125,-0.0658778625954195,-0.10473282442748093,-0.08351145038167937
510,-0.28515625,0.326416015625,0.8701171875,0.0791603053435117,0.055572519083969485,-0.1445801526717557
511,-0.2861328125,0.329833984375,0.870849609375,0.010458015267175824,-0.27267175572519087,0.2141984732824428
512,-0.283447265625,0.325927734375,0.872802734375,0.1631297709923667,-0.028396946564885506,-0.022442748091603015
513,-0.283203125,0.32861328125,0.8720703125,-0.13458015267175538,0.06320610687022898,0.03862595419847331
514,-0.28271484375,0.3291015625,0.87841796875,-0.004809160305343285,-0.2650381679389313,0.3058015267175573
515,-0.28076171875,0.326416015625,0.87060546875,0.08679389312977137,0.040305343511450376,-0.03007633587786257
516,-0.282958984375,0.3271484375,0.873046875,0.0333587786259546,-0.1581679389312977,-0.17511450381679386
517,-0.28759765625,0.33154296875,0.87353515625,-0.15748091603053416,0.04793893129770993,0.07679389312977103
518,-0.28515625,0.328857421875,0.876708984375,-0.004809160305343285,-0.11236641221374047,0.023358778625954202
519,-0.2822265625,0.330078125,0.87255859375,-0.004809160305343285,-0.3948091603053435,-0.32015267175572515
520,-0.28662109375,0.331298828125,0.87109375,0.09442748091603081,0.0021374045801526576,-0.07587786259541981
521,-0.281982421875,0.32763671875,0.874755859375,-0.012442748091602729,-0.12000000000000001,0.12259541984732825
522,-0.282958984375,0.328125,0.8759765625,-0.08114503816793861,0.2845801526717557,0.07679389312977103
523,-0.284423828125,0.32958984375,0.87646484375,-0.012442748091602729,0.040305343511450376,-0.06061068702290073
524,-0.27978515625,0.327392578125,0.868896484375,-0.14221374045801505,-0.10473282442748093,0.015725190839694675
525,-0.281982421875,0.327880859375,0.869873046875,0.01809160305343549,0.14717557251908397,0.008091603053435148
526,-0.289306640625,0.3291015625,0.87109375,-0.004809160305343285,0.01740458015267174,-0.06824427480916029
527,-0.2822265625,0.326171875,0.874267578125,0.21656488549618347,0.07083969465648854,-0.08351145038167937
528,-0.281005859375,0.328369140625,0.875,-0.04297709923664095,0.0021374045801526576,-0.014809160305343488
529,-0.279052734375,0.325927734375,0.86962890625,-0.04297709923664095,0.0784732824427481,-0.014809160305343488
530,-0.278564453125,0.326416015625,0.8798828125,-0.11167938931297683,0.025038167938931266,0.023358778625954202
531,-0.284423828125,0.328857421875,0.874267578125,-0.19564885496183182,0.14717557251908397,0.29053435114503817
532,-0.2822265625,0.326904296875,0.870849609375,-0.02770992366412184,-0.03603053435114503,0.19129770992366413
533,-0.283203125,0.32421875,0.87060546875,0.1631297709923667,0.0784732824427481,-0.18274809160305341
534,-0.2822265625,0.324462890625,0.87255859375,0.01809160305343549,0.06320610687022898,0.00045801526717559327
535,-0.28515625,0.326904296875,0.87353515625,-0.2185496183206106,-0.028396946564885506,0.07679389312977103
536,-0.28369140625,0.3271484375,0.87451171875,0.025725190839694934,0.055572519083969485,0.15312977099236647
537,-0.286376953125,0.3330078125,0.8740234375,0.0333587786259546,0.12427480916030531,0.030992366412213757
538,-0.285400390625,0.328857421875,0.871826171875,0.10206106870229026,0.17007633587786258,0.030992366412213757
539,-0.278564453125,0.330078125,0.875244140625,0.010458015267175824,-0.11236641221374047,-0.09877862595419845
540,-0.2841796875,0.323486328125,0.873046875,-0.12694656488549594,-0.02076335877862595,-0.24381679389312974
541,-0.28271484375,0.32373046875,0.87255859375,-0.18801526717557238,0.03267175572519082,0.03862595419847331
542,-0.2822265625,0.328369140625,0.87109375,-0.04297709923664095,-0.013129770992366424,-0.04534351145038165
543,-0.283447265625,0.32861328125,0.875244140625,0.20129770992366436,-0.15053435114503816,0.16839694656488552
544,-0.283935546875,0.32666015625,0.8701171875,0.10206106870229026,0.1853435114503817,-0.10641221374045799
545,-0.286376953125,0.330078125,0.87939453125,-0.05824427480916006,-0.21923664122137404,0.2218320610687023
546,-0.28515625,0.326171875,0.87548828125,-0.020076335877862395,0.26931297709923663,0.08442748091603058
547,-0.282470703125,0.326904296875,0.872314453125,0.0638931297709926,-0.013129770992366424,0.008091603053435148
548,-0.284423828125,0.32470703125,0.87451171875,0.1783969465648858,-0.028396946564885506,-0.052977099236641206
549,-0.28564453125,0.321044921875,0.8740234375,0.20129770992366436,0.13954198473282442,-0.03007633587786257
550,-0.283203125,0.3271484375,0.8759765625,-0.04297709923664095,0.12427480916030531,0.06152671755725192
551,-0.28369140625,0.328857421875,0.872314453125,0.04862595419847349,-0.10473282442748093,0.030992366412213757
552,-0.283203125,0.3310546875,0.872802734375,0.18603053435114525,0.17007633587786258,-0.08351145038167937
553,-0.284423828125,0.325927734375,0.870361328125,0.07152671755725226,0.08610687022900765,-0.06824427480916029
554,-0.283935546875,0.3251953125,0.869384765625,-0.24145038167938893,0.14717557251908397,-0.06061068702290073
555,-0.28369140625,0.327392578125,0.874755859375,0.1478625954198476,0.055572519083969485,0.06916030534351147
556,-0.281494140625,0.327880859375,0.87451171875,0.0028244274809163805,0.1013740458015267,-0.19038167938931294
557,-0.279541015625,0.324951171875,0.87109375,0.10969465648854992,-0.028396946564885506,-0.022442748091603015
558,-0.27783203125,0.327880859375,0.875732421875,0.07152671755725226,0.10900763358778626,-0.09877862595419845
559,-0.28369140625,0.33056640625,0.870849609375,-0.11167938931297683,0.03267175572519082,0.06152671755725192
560,-0.28466796875,0.330322265625,0.8759765625,-0.13458015267175538,0.12427480916030531,0.046259541984732866
561,-0.28076171875,0.328857421875,0.876220703125,-0.0658778625954195,-0.05893129770992367,0.09969465648854964
562,-0.280517578125,0.32763671875,0.875732421875,0.08679389312977137,-0.0818320610687023,0.22946564885496185
563,-0.283935546875,0.32666015625,0.87353515625,0.12496183206106903,0.2082442748091603,0.07679389312977103
564,-0.28466796875,0.328857421875,0.871826171875,-0.07351145038167917,0.025038167938931266,0.023358778625954202
565,-0.2783203125,0.327392578125,0.8720703125,-0.08877862595419828,-0.09709923664122139,0.08442748091603058
566,-0.28564453125,0.3310546875,0.876220703125,0.05625954198473315,0.040305343511450376,0.1454961832061069
567,-0.283203125,0.32861328125,0.876220703125,0.1631297709923667,-0.05893129770992367,-0.2209160305343511
568,-0.28173828125,0.332763671875,0.876708984375,-0.3788549618320607,0.07083969465648854,0.08442748091603058
569,-0.28564453125,0.32666015625,0.877197265625,-0.05061068702290039,0.14717557251908397,0.03862595419847331
570,-0.28564453125,0.326171875,0.87548828125,-0.02770992366412184,-0.02076335877862595,0.24473282442748095
571,-0.285888671875,0.328857421875,0.87109375,-0.012442748091602729,-0.03603053435114503,0.015725190839694675
572,-0.2802734375,0.329345703125,0.873046875,0.07152671755725226,-0.10473282442748093,-0.10641221374045799
573,-0.27880859375,0.326416015625,0.871826171875,0.08679389312977137,0.17007633587786258,0.00045801526717559327
574,-0.286376953125,0.32666015625,0.871826171875,0.14022900763358814,-0.04366412213740459,0.05389312977099242
575,-0.28271484375,0.33154296875,0.869140625,-0.03534351145038128,0.2769465648854961,-0.3430534351145038
576,-0.28857421875,0.328125,0.8759765625,-0.004809160305343285,0.3151145038167939,0.1302290076335878
577,-0.284912109375,0.33349609375,0.873046875,0.08679389312977137,0.1013740458015267,0.16076335877862596
578,-0.280029296875,0.3271484375,0.8740234375,0.11732824427480937,0.2082442748091603,-0.17511450381679386
579,-0.281982421875,0.329345703125,0.87744140625,0.17076335877862614,-0.09709923664122139,-0.22854961832061066
580,-0.285888671875,0.325927734375,0.877197265625,-0.020076335877862395,0.01740458015267174,-0.3277862595419847
581,-0.281494140625,0.328369140625,0.878662109375,-0.07351145038167917,-0.14290076335877863,-0.12167938931297707
582,-0.28271484375,0.326904296875,0.874755859375,0.19366412213740491,-0.07419847328244275,-0.12931297709923661
583,-0.284912109375,0.32666015625,0.875,-0.19564885496183182,0.1929770992366412,-0.13694656488549617
584,-0.28125,0.3291015625,0.873291015625,-0.02770992366412184,-0.005496183206106869,0.06916030534351147
585,-0.284912109375,0.329345703125,0.875732421875,0.13259541984732848,-0.0818320610687023,0.12259541984732825
586,-0.285400390625,0.3251953125,0.870361328125,0.1631297709923667,-0.21923664122137404,0.023358778625954202
587,-0.281982421875,0.33056640625,0.872802734375,-0.22618320610687004,-0.03603053435114503,-0.09877862595419845
588,-0.280517578125,0.32568359375,0.87353515625,-0.07351145038167917,-0.04366412213740459,0.09206106870229008
589,-0.282958984375,0.328369140625,0.86962890625,0.04099236641221404,0.055572519083969485,0.10732824427480919
590,-0.28076171875,0.3310546875,0.871826171875,-0.10404580152671716,-0.12000000000000001,0.07679389312977103
591,-0.279541015625,0.325927734375,0.87255859375,0.1783969465648858,-0.15053435114503816,-0.16748091603053433
592,-0.281982421875,0.327880859375,0.875,-0.05061068702290039,0.03267175572519082,0.046259541984732866
593,-0.284423828125,0.326416015625,0.87158203125,0.20893129770992402,-0.02076335877862595,0.09206106870229008
594,-0.28369140625,0.326904296875,0.87109375,-0.02770992366412184,-0.07419847328244275,0.07679389312977103
595,-0.286865234375,0.331787109375,0.87646484375,0.025725190839694934,-0.21923664122137404,-0.052977099236641206
596,-0.281494140625,0.3271484375,0.87744140625,0.010458015267175824,-0.09709923664122139,-0.18274809160305341
597,-0.2822265625,0.32763671875,0.875732421875,-0.012442748091602729,-0.20396946564885496,0.00045801526717559327
598,-0.287109375,0.324951171875,0.872314453125,0.323435114503817,0.0021374045801526576,-0.04534351145038165
599,-0.28564453125,0.332275390625,0.874267578125,-0.09641221374045772,-0.10473282442748093,-0.022442748091603015
600,-0.284912109375,0.32763671875,0.871337890625,0.09442748091603081,-0.24977099236641223,-0.12931297709923661
601,-0.282470703125,0.327880859375,0.874267578125,-0.17274809160305304,0.055572519083969485,-0.25145038167938927
602,-0.280517578125,0.325439453125,0.87744140625,-0.07351145038167917,-0.18870229007633588,0.03862595419847331
603,-0.281982421875,0.328125,0.8740234375,0.08679389312977137,0.01740458015267174,-0.10641221374045799
604,-0.2822265625,0.3291015625,0.87060546875,0.23183206106870258,-0.02076335877862595,0.030992366412213757
605,-0.282958984375,0.32763671875,0.875732421875,0.04862595419847349,-0.12763358778625955,0.2141984732824428
606,-0.28564453125,0.326171875,0.870361328125,0.04862595419847349,0.26931297709923663,0.12259541984732825
607,-0.2802734375,0.328857421875,0.872314453125,0.0028244274809163805,0.3151145038167939,0.08442748091603058
608,-0.282470703125,0.323486328125,0.869384765625,-0.0658778625954195,-0.19633587786259543,-0.16748091603053433
609,-0.27880859375,0.32470703125,0.875,0.08679389312977137,-0.23450381679389315,-0.04534351145038165
610,-0.28564453125,0.3251953125,0.87451171875,0.14022900763358814,0.08610687022900765,-0.0911450381679389
611,-0.2841796875,0.32861328125,0.868408203125,0.10206106870229026,0.01740458015267174,0.008091603053435148
612,-0.281494140625,0.330078125,0.870849609375,-0.09641221374045772,0.040305343511450376,-0.17511450381679386
613,-0.282958984375,0.328125,0.879638671875,0.08679389312977137,-0.2116030534351145,0.2370992366412214
614,-0.283935546875,0.33056640625,0.875244140625,0.14022900763358814,-0.028396946564885506,0.1302290076335878
615,-0.280517578125,0.327392578125,0.87548828125,-0.0658778625954195,0.10900763358778626,-0.2209160305343511
616,-0.28466796875,0.328369140625,0.875732421875,0.23183206106870258,0.30748091603053435,-0.13694656488549617
617,-0.2822265625,0.324951171875,0.87060546875,0.07152671755725226,-0.03603053435114503,0.20656488549618324
618,-0.28466796875,0.328125,0.873046875,0.05625954198473315,0.17770992366412214,-0.22854961832061066
619,-0.28369140625,0.328369140625,0.875,0.14022900763358814,0.17007633587786258,0.015725190839694675
620,-0.28515625,0.33154296875,0.872802734375,-0.11167938931297683,0.07083969465648854,0.2523664122137405
621,-0.281982421875,0.33251953125,0.871337890625,0.1478625954198476,-0.19633587786259543,-0.10641221374045799
622,-0.28369140625,0.327392578125,0.8740234375,0.11732824427480937,-0.3184732824427481,-0.007175572519083934
623,-0.283447265625,0.330810546875,0.868896484375,-0.0658778625954195,-0.14290076335877863,-0.007175572519083934
624,-0.280029296875,0.327392578125,0.87158203125,-0.05061068702290039,-0.19633587786259543,0.26763358778625956
625,-0.28564453125,0.325927734375,0.87109375,0.17076335877862614,-0.028396946564885506,-0.04534351145038165
626,-0.28125,0.326904296875,0.873779296875,0.0791603053435117,-0.05129770992366414,-0.06061068702290073
627,-0.281005859375,0.3310546875,0.872802734375,0.0791603053435117,-0.06656488549618322,0.13786259541984736
628,-0.287353515625,0.3271484375,0.87548828125,0.04099236641221404,-0.14290076335877863,-0.09877862595419845
629,-0.2841796875,0.330322265625,0.872314453125,0.05625954198473315,-0.02076335877862595,0.1302290076335878
630,-0.28125,0.3291015625,0.87353515625,0.292900763358779,-0.005496183206106869,0.26
631,-0.281982421875,0.328125,0.8740234375,0.1783969465648858,0.08610687022900765,0.16076335877862596
632,-0.2822265625,0.328125,0.87255859375,0.025725190839694934,0.055572519083969485,-0.052977099236641206
633,-0.283935546875,0.326416015625,0.87109375,0.08679389312977137,0.11664122137404581,-0.11404580152671753
634,-0.280029296875,0.32763671875,0.873291015625,0.0333587786259546,0.01740458015267174,-0.11404580152671753
635,-0.2861328125,0.3291015625,0.86962890625,-0.012442748091602729,0.24641221374045802,-0.19038167938931294
636,-0.282958984375,0.329345703125,0.875,-0.1498473282442745,0.09374045801526715,-0.04534351145038165
637,-0.2802734375,0.328857421875,0.86865234375,-0.03534351145038128,0.10900763358778626,-0.22854961832061066
638,-0.285888671875,0.326416015625,0.871826171875,0.10206106870229026,-0.028396946564885506,-0.11404580152671753
639,-0.2861328125,0.329345703125,0.875,0.13259541984732848,-0.02076335877862595,-0.11404580152671753
640,-0.281494140625,0.32861328125,0.87744140625,-0.20328244274809126,-0.12000000000000001,-0.07587786259541981
641,-0.28369140625,0.32666015625,0.87109375,0.17076335877862614,-0.05129770992366414,0.09969465648854964
642,-0.279052734375,0.327392578125,0.875,0.13259541984732848,-0.24977099236641223,-0.21328244274809158
643,-0.28564453125,0.32763671875,0.870849609375,-0.12694656488549594,-0.07419847328244275,-0.13694656488549617
644,-0.282958984375,0.328857421875,0.869384765625,0.04862595419847349,0.09374045801526715,-0.06061068702290073
645,-0.281005859375,0.330078125,0.868408203125,0.1631297709923667,-0.32610687022900764,-0.2361832061068702
646,-0.280517578125,0.327880859375,0.871337890625,-0.1651145038167936,-0.1581679389312977,0.2218320610687023
647,-0.28515625,0.325927734375,0.87109375,-0.14221374045801505,0.22351145038167936,0.05389312977099242
648,-0.28369140625,0.328369140625,0.875,0.10206106870229026,0.14717557251908397,-0.08351145038167937
649,-0.2822265625,0.32958984375,0.872314453125,-0.05824427480916006,-0.005496183206106869,-0.06061068702290073
650,-0.284423828125,0.327880859375,0.875732421875,0.010458015267175824,0.009770992366412212,-0.07587786259541981
651,-0.282470703125,0.330078125,0.872802734375,-0.11167938931297683,-0.028396946564885506,0.023358778625954202
652,-0.2802734375,0.328857421875,0.866455078125,-0.02770992366412184,-0.1734351145038168,0.17603053435114507
653,-0.284423828125,0.326416015625,0.869873046875,0.01809160305343549,-0.005496183206106869,-0.007175572519083934
654,-0.283203125,0.326904296875,0.87744140625,0.07152671755725226,0.14717557251908397,0.03862595419847331
655,-0.287353515625,0.328857421875,0.874755859375,0.010458015267175824,0.17007633587786258,0.07679389312977103
656,-0.2841796875,0.32373046875,0.875244140625,-0.08877862595419828,0.1013740458015267,0.015725190839694675
657,-0.2822265625,0.325439453125,0.872314453125,0.20893129770992402,0.08610687022900765,0.09206106870229008
658,-0.282958984375,0.3232421875,0.87158203125,0.08679389312977137,0.20061068702290075,-0.022442748091603015
659,-0.285400390625,0.3271484375,0.877197265625,-0.11931297709923627,0.11664122137404581,-0.2209160305343511
660,-0.28369140625,0.3291015625,0.874267578125,-0.03534351145038128,-0.06656488549618322,0.26763358778625956
661,-0.281005859375,0.3310546875,0.876708984375,0.04862595419847349,-0.07419847328244275,0.023358778625954202
662,-0.28564453125,0.32763671875,0.87109375,0.09442748091603081,0.24641221374045802,-0.014809160305343488
663,-0.285400390625,0.3291015625,0.87109375,0.09442748091603081,0.07083969465648854,0.06152671755725192
664,-0.28125,0.3291015625,0.874267578125,-0.2109160305343507,0.04793893129770993,0.08442748091603058
665,-0.2841796875,0.32666015625,0.8759765625,-0.11167938931297683,-0.08946564885496183,-0.2209160305343511
666,-0.283203125,0.326171875,0.872802734375,0.19366412213740491,-0.03603053435114503,-0.007175572519083934
667,-0.28369140625,0.329345703125,0.875244140625,0.01809160305343549,0.040305343511450376,-0.03007633587786257
668,-0.279541015625,0.32470703125,0.874755859375,-0.1651145038167936,0.01740458015267174,-0.21328244274809158
669,-0.283203125,0.329345703125,0.8681640625,-0.07351145038167917,-0.05129770992366414,0.16839694656488552
670,-0.2802734375,0.32861328125,0.8740234375,-0.05824427480916006,-0.1734351145038168,-0.03007633587786257
671,-0.2822265625,0.327392578125,0.8779296875,-0.020076335877862395,0.1013740458015267,-0.18274809160305341
672,-0.281494140625,0.33056640625,0.870361328125,0.09442748091603081,0.09374045801526715,0.15312977099236647
673,-0.281005859375,0.328125,0.878173828125,-0.012442748091602729,0.22351145038167936,-0.03007633587786257
674,-0.285888671875,0.328125,0.87646484375,0.010458015267175824,0.0784732824427481,0.09969465648854964
675,-0.28271484375,0.32568359375,0.8720703125,-0.05824427480916006,-0.20396946564885496,-0.29725190839694654
676,-0.282958984375,0.328369140625,0.87744140625,-0.09641221374045772,0.16244274809160303,-0.0377099236641221
677,-0.28466796875,0.32763671875,0.8759765625,0.04862595419847349,0.009770992366412212,-0.014809160305343488
678,-0.282470703125,0.331298828125,0.871826171875,-0.04297709923664095,0.06320610687022898,-0.13694656488549617
679,-0.283935546875,0.329345703125,0.869140625,0.14022900763358814,0.16244274809160303,0.1302290076335878
680,-0.284423828125,0.328125,0.874267578125,-0.05061068702290039,0.1929770992366412,0.08442748091603058
681,-0.283935546875,0.329833984375,0.876220703125,0.1631297709923667,-0.1352671755725191,0.06152671755725192
682,-0.28271484375,0.32568359375,0.876708984375,0.010458015267175824,-0.28030534351145037,0.00045801526717559327
683,-0.28271484375,0.326904296875,0.877685546875,0.1631297709923667,-0.03603053435114503,0.10732824427480919
684,-0.28173828125,0.32763671875,0.87646484375,-0.004809160305343285,-0.25740458015267176,-0.08351145038167937
685,-0.280517578125,0.330078125,0.876220703125,0.05625954198473315,0.055572519083969485,0.03862595419847331
686,-0.279296875,0.329345703125,0.874755859375,-0.1651145038167936,0.03267175572519082,0.046259541984732866
687,-0.284423828125,0.330322265625,0.869384765625,0.04099236641221404,-0.04366412213740459,-0.12167938931297707
688,-0.281494140625,0.329345703125,0.873291015625,-0.05824427480916006,0.2769465648854961,0.1454961832061069
689,-0.285400390625,0.328369140625,0.871337890625,-0.020076335877862395,-0.23450381679389315,0.023358778625954202
690,-0.283203125,0.329345703125,0.86865234375,-0.0658778625954195,-0.24977099236641223,-0.022442748091603015
691,-0.28271484375,0.329345703125,0.872314453125,-0.09641221374045772,-0.2955725190839695,0.030992366412213757
692,-0.279296875,0.327392578125,0.873779296875,0.010458015267175824,0.12427480916030531,0.023358778625954202
693,-0.278076171875,0.328125,0.874267578125,0.0028244274809163805,0.025038167938931266,0.06152671755725192
694,-0.285888671875,0.326416015625,0.875244140625,-0.2185496183206106,0.040305343511450376,0.07679389312977103
695,-0.27783203125,0.324462890625,0.87548828125,-0.08114503816793861,-0.24213740458015268,-0.0911450381679389
696,-0.284423828125,0.32861328125,0.873291015625,0.0638931297709926,-0.06656488549618322,-0.27435114503816793
697,-0.28271484375,0.328369140625,0.86865234375,0.1783969465648858,0.01740458015267174,0.00045801526717559327
698,-0.285400390625,0.337646484375,0.853515625,0.23183206106870258,0.33801526717557256,0.18366412213740463
699,-0.282958984375,0.331298828125,0.863525390625,0.10969465648854992,0.10900763358778626,0.06916030534351147
700,-0.2822265625,0.33447265625,0.858642578125,-0.2643511450381677,-0.05129770992366414,0.06916030534351147
701,-0.285400390625,0.324462890625,0.870849609375,-0.020076335877862395,-0.005496183206106869,0.15312977099236647
702,-0.289794921875,0.357421875,0.867431640625,0.0333587786259546,-0.28030534351145037,0.29053435114503817
703,-0.27783203125,0.319580078125,0.8759765625,-0.07351145038167917,-0.18106870229007635,0.06916030534351147
704,-0.27978515625,0.342041015625,0.874755859375,-0.05824427480916006,-0.12000000000000001,0.3363358778625955
705,-0.280029296875,0.329833984375,0.87939453125,-0.05824427480916006,0.055572519083969485,0.046259541984732866
706,-0.289794921875,0.337646484375,0.866943359375,0.18603053435114525,-0.21923664122137404,-0.3735877862595419
707,-0.280029296875,0.32177734375,0.874267578125,-0.17274809160305304,0.09374045801526715,-0.18274809160305341
708,-0.27001953125,0.2919921875,0.892333984375,-0.08877862595419828,-0.5780152671755725,-0.08351145038167937
709,-0.3037109375,0.2861328125,0.8994140625,-0.20328244274809126,0.4754198473282442,0.16839694656488552
710,-0.283447265625,0.3154296875,0.873779296875,0.25473282442748113,-0.0818320610687023,-0.1980152671755725
711,-0.282470703125,0.3173828125,0.877685546875,0.25473282442748113,-0.2268702290076336,0.2218320610687023
712,-0.283203125,0.3359375,0.8740234375,0.12496183206106903,0.07083969465648854,0.008091603053435148
713,-0.284912109375,0.322021484375,0.88232421875,0.3081679389312979,0.17770992366412214,-0.19038167938931294
714,-0.2841796875,0.32470703125,0.86328125,-0.3101526717557248,-0.31083969465648853,0.2829007633587786
715,-0.279052734375,0.318359375,0.878662109375,-0.1651145038167936,0.12427480916030531,-0.04534351145038165
716,-0.28955078125,0.33642578125,0.867919921875,-0.22618320610687004,0.025038167938931266,-0.04534351145038165
717,-0.2783203125,0.3271484375,0.87890625,-0.6460305343511448,-1.188702290076336,0.09969465648854964
718,-0.281005859375,0.31201171875,0.866455078125,-1.3483206106870225,-1.639083969465649,-0.2209160305343511
719,-0.281005859375,0.31689453125,0.8896484375,-3.2719847328244276,-3.78412213740458,0.18366412213740463
720,-0.260009765625,0.2900390625,0.972412109375,-3.5086259541984726,-4.4406106870229,0.3363358778625955
721,-0.271728515625,0.353271484375,0.890380859375,-2.0429770992366407,-2.8299236641221373,0.9088549618320612
722,-0.26953125,0.311767578125,0.906982421875,-1.3177862595419843,-1.9673282442748092,0.2141984732824428
723,-0.2744140625,0.317626953125,0.870849609375,-0.09641221374045772,0.2082442748091603,0.08442748091603058
724,-0.270751953125,0.31005859375,0.888916015625,0.45320610687022933,0.4754198473282442,0.1302290076335878
725,-0.272216796875,0.318115234375,0.880615234375,0.5982442748091605,0.5670229007633587,-0.20564885496183202
726,-0.271484375,0.310791015625,0.8798828125,-0.020076335877862395,0.06320610687022898,-0.15984732824427478
727,-0.2705078125,0.3232421875,0.862060546875,-0.4322900763358777,-0.49404580152671757,-0.1980152671755725
728,-0.26123046875,0.287353515625,0.90576171875,-0.8826717557251906,-0.8451908396946566,-0.06824427480916029
729,-0.275390625,0.295654296875,0.837890625,-1.3254198473282441,-1.1123664122137404,0.19129770992366413
730,-0.2744140625,0.329833984375,0.840576171875,-0.04297709923664095,0.23877862595419846,0.11496183206106875
731,-0.271484375,0.3154296875,0.874267578125,-0.42465648854961824,-0.34137404580152675,-0.16748091603053433
732,-0.264404296875,0.30615234375,0.8935546875,-0.6536641221374042,-0.6314503816793893,0.030992366412213757
733,-0.27197265625,0.3251953125,0.87939453125,-0.12694656488549594,-0.005496183206106869,-0.2209160305343511
734,-0.27001953125,0.30810546875,0.884033203125,0.13259541984732848,-0.08946564885496183,-0.16748091603053433
735,-0.263427734375,0.306884765625,0.89990234375,-0.1651145038167936,0.33801526717557256,-0.08351145038167937
736,-0.263916015625,0.310302734375,0.89453125,-0.12694656488549594,-0.028396946564885506,0.17603053435114507
737,-0.27490234375,0.31103515625,0.883056640625,0.0791603053435117,0.2845801526717557,-0.0911450381679389
738,-0.26611328125,0.32666015625,0.88623046875,0.30053435114503846,-0.16580152671755727,-0.12931297709923661
739,-0.27294921875,0.318359375,0.87939453125,-0.1803816793893125,-0.09709923664122139,0.11496183206106875
740,-0.2724609375,0.31103515625,0.876953125,-0.17274809160305304,-0.19633587786259543,-0.12931297709923661
741,-0.26123046875,0.32568359375,0.909423828125,-0.1498473282442745,-0.6619847328244275,0.16839694656488552
742,-0.2744140625,0.32666015625,0.863037109375,0.5142748091603055,0.5059541984732825,0.11496183206106875
743,-0.27001953125,0.31103515625,0.895751953125,-0.5467938931297707,-0.7841221374045801,-0.12167938931297707
744,-0.2646484375,0.30078125,0.91455078125,0.1783969465648858,0.10900763358778626,-0.04534351145038165
745,-0.28369140625,0.31201171875,0.86572265625,-2.2643511450381677,-1.6009160305343513,-0.06824427480916029
746,-0.27490234375,0.29833984375,0.875,0.8043511450381682,1.6586259541984731,0.1454961832061069
747,-0.24169921875,0.34130859375,0.935302734375,1.6669465648854964,1.4372519083969466,-0.16748091603053433
748,-0.254150390625,0.321044921875,0.964599609375,4.292900763358778,4.628091603053435,-0.8392366412213741
749,-0.271728515625,0.12890625,0.691650390625,1.8806870229007637,-1.020763358778626,0.4355725190839695
750,-0.226318359375,0.369384765625,1.229736328125,3.5295419847328247,3.2845801526717557,0.1302290076335878
751,-0.2919921875,0.342041015625,0.651123046875,-3.6460305343511443,-5.272671755725191,-0.6712977099236641
752,-0.24609375,0.310302734375,1.00537109375,5.262366412213741,5.368549618320611,-1.106412213740458
753,-0.26904296875,0.30322265625,0.878173828125,-4.462824427480916,-5.547480916030534,-0.6178625954198473
754,-0.272705078125,0.3125,0.80322265625,2.888320610687023,3.292213740458015,-0.7323664122137403
755,-0.255126953125,0.3076171875,0.9775390625,0.18603053435114525,-0.16580152671755727,-0.3964885496183206
756,-0.268310546875,0.31982421875,0.84228515625,-0.8521374045801524,-1.2116030534351145,-0.289618320610687
757,-0.271728515625,0.322509765625,0.8740234375,1.376870229007634,0.8341984732824428,-0.5338931297709923
758,-0.26318359375,0.31787109375,0.914794921875,0.0333587786259546,-0.49404580152671757,-0.472824427480916
759,-0.266845703125,0.314208984375,0.8828125,-0.11167938931297683,-0.8375572519083969,-0.4117557251908397
760,-0.267578125,0.315673828125,0.873291015625,0.49900763358778666,-0.028396946564885506,-0.472824427480916
761,-0.26513671875,0.31689453125,0.888671875,0.2776335877862599,0.23877862595419846,-0.18274809160305341
762,-0.265380859375,0.31689453125,0.8935546875,0.3768702290076338,0.15480916030534353,-0.5796946564885496
763,-0.259521484375,0.316162109375,0.891357421875,0.28526717557251935,-0.07419847328244275,-0.6331297709923664
764,-0.262939453125,0.315673828125,0.882568359375,0.11732824427480937,-0.1581679389312977,-0.5644274809160306
765,-0.2646484375,0.317626953125,0.88720703125,0.49900763358778666,0.17007633587786258,-0.3506870229007633
766,-0.262451171875,0.313232421875,0.8818359375,0.15549618320610725,-0.11236641221374047,-0.32015267175572515
767,-0.26318359375,0.31298828125,0.882080078125,0.2776335877862599,-0.1734351145038168,-0.46519083969465647
768,-0.266357421875,0.3125,0.8818359375,0.35396946564885523,0.45251908396946566,-0.5949618320610687
769,-0.25927734375,0.291015625,0.889404296875,0.11732824427480937,0.29221374045801524,-0.8163358778625953
770,-0.26611328125,0.314453125,0.8759765625,0.292900763358779,0.01740458015267174,-0.19038167938931294
771,-0.267333984375,0.32080078125,0.8828125,0.27000000000000024,0.16244274809160303,-0.6865648854961832
772,-0.265625,0.3154296875,0.8828125,0.1478625954198476,-0.2955725190839695,-0.49572519083969463
773,-0.263916015625,0.31689453125,0.88232421875,0.35396946564885523,0.07083969465648854,-0.32015267175572515
774,-0.2646484375,0.315673828125,0.88427734375,0.3463358778625958,-0.27267175572519087,-0.2209160305343511
775,-0.2626953125,0.31591796875,0.880615234375,0.3387022900763361,0.39145038167938934,-0.2209160305343511
776,-0.26611328125,0.31884765625,0.889892578125,0.23183206106870258,0.12427480916030531,-0.2590839694656488
777,-0.26318359375,0.318359375,0.890625,0.17076335877862614,-0.07419847328244275,-0.32015267175572515
778,-0.26171875,0.318359375,0.88134765625,0.22419847328244313,0.0021374045801526576,-0.3964885496183206
779,-0.263916015625,0.314453125,0.8837890625,0.10969465648854992,0.10900763358778626,-0.22854961832061066
780,-0.26611328125,0.31787109375,0.884033203125,0.28526717557251935,-0.486412213740458,-0.19038167938931294
781,-0.263671875,0.32177734375,0.882568359375,0.2623664122137408,-0.18106870229007635,-0.20564885496183202
782,-0.262451171875,0.317138671875,0.887451171875,0.4226717557251911,-0.2955725190839695,-0.0911450381679389
783,-0.267822265625,0.317138671875,0.889404296875,0.08679389312977137,-0.18870229007633588,-0.24381679389312974
784,-0.263671875,0.316162109375,0.880859375,0.10206106870229026,-0.03603053435114503,-0.0377099236641221
785,-0.263671875,0.318115234375,0.88623046875,0.28526717557251935,-0.03603053435114503,-0.3735877862595419
786,-0.261962890625,0.31396484375,0.88427734375,0.23946564885496202,-0.11236641221374047,-0.32015267175572515
787,-0.26611328125,0.313232421875,0.881591796875,0.3310687022900767,0.13954198473282442,-0.1445801526717557
788,-0.26123046875,0.31396484375,0.88623046875,0.05625954198473315,-0.12763358778625955,-0.289618320610687
789,-0.265380859375,0.315673828125,0.8828125,0.35396946564885523,0.06320610687022898,-0.27435114503816793
790,-0.2666015625,0.315673828125,0.888427734375,0.01809160305343549,0.08610687022900765,-0.06061068702290073
791,-0.260009765625,0.31689453125,0.8798828125,0.0333587786259546,-0.3948091603053435,-0.18274809160305341
792,-0.2666015625,0.3203125,0.883544921875,0.09442748091603081,-0.005496183206106869,-0.1980152671755725
793,-0.263671875,0.316162109375,0.884521484375,0.0333587786259546,0.09374045801526715,-0.29725190839694654
794,-0.2626953125,0.31689453125,0.88427734375,0.17076335877862614,0.29221374045801524,-0.09877862595419845
795,-0.260498046875,0.314453125,0.89111328125,0.23946564885496202,0.330381679389313,-0.11404580152671753
796,-0.2646484375,0.31689453125,0.8828125,0.09442748091603081,0.11664122137404581,-0.06824427480916029
797,-0.266845703125,0.322265625,0.88671875,-0.02770992366412184,-0.24977099236641223,-0.22854961832061066
798,-0.265869140625,0.315185546875,0.879638671875,0.10969465648854992,-0.15053435114503816,-0.3659541984732824
799,-0.26171875,0.31689453125,0.888916015625,0.025725190839694934,0.2845801526717557,-0.3735877862595419
800,-0.263671875,0.31201171875,0.88818359375,0.1478625954198476,-0.23450381679389315,-0.29725190839694654
801,-0.262939453125,0.313232421875,0.88427734375,-0.1803816793893125,-0.02076335877862595,-0.3812213740458015
802,-0.266357421875,0.315673828125,0.882568359375,0.1631297709923667,-0.12000000000000001,-0.21328244274809158
803,-0.26513671875,0.312744140625,0.88525390625,0.1783969465648858,-0.2955725190839695,-0.35832061068702287
804,-0.262939453125,0.3193359375,0.884033203125,0.1783969465648858,0.1013740458015267,-0.15984732824427478
805,-0.263427734375,0.31494140625,0.8798828125,0.2470992366412217,-0.3795419847328244,-0.12931297709923661
806,-0.265380859375,0.31640625,0.886962890625,0.2623664122137408,0.01740458015267174,-0.15221374045801522
807,-0.26513671875,0.318603515625,0.886962890625,0.25473282442748113,0.0021374045801526576,-0.1980152671755725
808,-0.26123046875,0.312744140625,0.888671875,0.1783969465648858,0.07083969465648854,-0.27435114503816793
809,-0.2626953125,0.310791015625,0.89013671875,0.5524427480916034,0.2845801526717557,-0.21328244274809158
810,-0.264892578125,0.31787109375,0.891845703125,0.2623664122137408,-0.27267175572519087,-0.3735877862595419
811,-0.25927734375,0.315673828125,0.88671875,0.292900763358779,0.1013740458015267,-0.6636641221374046
812,-0.2646484375,0.31396484375,0.888671875,0.23946564885496202,-0.03603053435114503,-0.4880916030534351
813,-0.26513671875,0.3095703125,0.885498046875,0.25473282442748113,-0.4253435114503817,-0.5262595419847328
814,-0.25927734375,0.318603515625,0.890625,0.3768702290076338,0.055572519083969485,-0.3125190839694656
815,-0.263916015625,0.31787109375,0.8818359375,0.3387022900763361,-0.8070229007633587,-0.5186259541984732
816,-0.260986328125,0.316162109375,0.892333984375,0.10206106870229026,0.4983206106870229,-0.19038167938931294
817,-0.259521484375,0.317138671875,0.8837890625,0.08679389312977137,0.26931297709923663,-0.08351145038167937
818,-0.2646484375,0.31298828125,0.88818359375,0.31580152671755757,0.17007633587786258,-0.4804580152671755
819,-0.262451171875,0.3154296875,0.88818359375,0.39977099236641256,0.5364885496183207,-0.472824427480916
820,-0.2646484375,0.315185546875,0.882568359375,0.1631297709923667,-0.2268702290076336,-0.11404580152671753
821,-0.2626953125,0.31396484375,0.882080078125,0.25473282442748113,0.0784732824427481,-0.5491603053435115
822,-0.261962890625,0.31298828125,0.889404296875,0.5524427480916034,-0.1352671755725191,-0.32015267175572515
823,-0.264404296875,0.31787109375,0.88232421875,0.19366412213740491,-0.23450381679389315,-0.2590839694656488
824,-0.263427734375,0.31640625,0.890380859375,0.1478625954198476,-0.20396946564885496,-0.3048854961832061
825,-0.265625,0.315673828125,0.884765625,0.04099236641221404,-0.27267175572519087,-0.12931297709923661
826,-0.265869140625,0.317626953125,0.883544921875,0.08679389312977137,-0.04366412213740459,-0.15221374045801522
827,-0.26611328125,0.316650390625,0.884521484375,0.323435114503817,-0.3184732824427481,-0.22854961832061066
828,-0.265625,0.317626953125,0.875,0.2623664122137408,0.009770992366412212,-0.25145038167938927
829,-0.263427734375,0.318359375,0.88427734375,0.18603053435114525,-0.03603053435114503,-0.11404580152671753
830,-0.263916015625,0.3203125,0.88916015625,0.17076335877862614,0.03267175572519082,-0.10641221374045799
831,-0.26171875,0.316650390625,0.880615234375,0.21656488549618347,-0.03603053435114503,-0.014809160305343488
832,-0.265869140625,0.319091796875,0.880126953125,0.04099236641221404,0.01740458015267174,-0.3125190839694656
833,-0.266357421875,0.316162109375,0.882080078125,0.22419847328244313,-0.5016793893129772,-0.03007633587786257
834,-0.26318359375,0.315673828125,0.892822265625,0.05625954198473315,0.30748091603053435,0.08442748091603058
835,-0.267578125,0.31787109375,0.88818359375,-0.11931297709923627,-0.3948091603053435,-0.014809160305343488
836,-0.26513671875,0.317138671875,0.87744140625,-0.08877862595419828,0.01740458015267174,-0.08351145038167937
837,-0.267822265625,0.315673828125,0.882080078125,-0.020076335877862395,-0.1734351145038168,0.046259541984732866
838,-0.2666015625,0.3173828125,0.88525390625,-0.12694656488549594,0.0784732824427481,0.08442748091603058
839,-0.265869140625,0.314453125,0.891357421875,0.04862595419847349,-0.04366412213740459,-0.04534351145038165
840,-0.264892578125,0.318359375,0.88525390625,-0.1498473282442745,-0.15053435114503816,-0.1445801526717557
841,-0.2666015625,0.318603515625,0.883544921875,0.0028244274809163805,-0.06656488549618322,0.29053435114503817
842,-0.26904296875,0.315185546875,0.88623046875,-0.12694656488549594,-0.10473282442748093,-0.12931297709923661
843,-0.26611328125,0.315185546875,0.879150390625,-0.08877862595419828,-0.2650381679389313,0.015725190839694675
844,-0.2646484375,0.317138671875,0.875732421875,0.07152671755725226,-0.3795419847328244,-0.06061068702290073
845,-0.263916015625,0.314697265625,0.878173828125,-0.07351145038167917,0.04793893129770993,-0.0377099236641221
846,-0.268310546875,0.314453125,0.885498046875,0.14022900763358814,0.29221374045801524,0.37450381679389316
847,-0.265625,0.318603515625,0.875244140625,-0.09641221374045772,0.1853435114503817,-0.014809160305343488
848,-0.269775390625,0.318359375,0.87939453125,0.0791603053435117,-0.0818320610687023,0.26
849,-0.26513671875,0.318603515625,0.891845703125,-0.1498473282442745,0.1929770992366412,0.015725190839694675
850,-0.267822265625,0.31494140625,0.8828125,-0.004809160305343285,-0.15053435114503816,0.07679389312977103
851,-0.26953125,0.317138671875,0.88232421875,0.09442748091603081,0.009770992366412212,0.26763358778625956
852,-0.268798828125,0.323486328125,0.880126953125,-0.012442748091602729,-0.19633587786259543,0.2370992366412214
853,-0.263671875,0.31787109375,0.886962890625,0.23946564885496202,0.07083969465648854,0.1454961832061069
854,-0.266357421875,0.317626953125,0.883056640625,-0.1803816793893125,-0.06656488549618322,0.2829007633587786
855,-0.265869140625,0.31494140625,0.882080078125,0.01809160305343549,0.17770992366412214,0.15312977099236647
856,-0.26416015625,0.311279296875,0.883056640625,0.20893129770992402,-0.16580152671755727,0.34396946564885494
857,-0.26953125,0.318603515625,0.885498046875,0.17076335877862614,0.0784732824427481,0.3516030534351145
858,-0.269775390625,0.32275390625,0.87841796875,-0.19564885496183182,0.17007633587786258,0.20656488549618324
859,-0.265625,0.318115234375,0.883544921875,0.11732824427480937,-0.04366412213740459,0.19129770992366413
860,-0.2646484375,0.315673828125,0.883544921875,-0.2185496183206106,0.13190839694656487,0.05389312977099242
861,-0.267822265625,0.31640625,0.879150390625,-0.02770992366412184,-0.09709923664122139,0.16076335877862596
862,-0.268310546875,0.316162109375,0.885986328125,0.11732824427480937,0.07083969465648854,0.046259541984732866
863,-0.27099609375,0.315185546875,0.880615234375,0.10206106870229026,-0.09709923664122139,0.030992366412213757
864,-0.265380859375,0.311767578125,0.883056640625,0.010458015267175824,0.08610687022900765,0.18366412213740463
865,-0.26416015625,0.31787109375,0.88037109375,0.22419847328244313,0.09374045801526715,-0.007175572519083934
866,-0.264892578125,0.315673828125,0.885498046875,0.0638931297709926,0.15480916030534353,0.09969465648854964
867,-0.267822265625,0.31591796875,0.8828125,0.0028244274809163805,-0.14290076335877863,0.1302290076335878
868,-0.27099609375,0.3173828125,0.88037109375,0.09442748091603081,0.09374045801526715,0.09969465648854964
869,-0.268310546875,0.31396484375,0.87890625,0.04099236641221404,-0.05129770992366414,0.16076335877862596
870,-0.263671875,0.314208984375,0.88037109375,-0.12694656488549594,0.04793893129770993,0.16839694656488552
871,-0.266845703125,0.318603515625,0.8798828125,0.19366412213740491,-0.013129770992366424,0.023358778625954202
872,-0.269775390625,0.32958984375,0.8740234375,0.010458015267175824,-0.05893129770992367,0.12259541984732825
873,-0.265869140625,0.308837890625,0.886962890625,0.025725190839694934,0.06320610687022898,-0.0377099236641221
874,-0.268798828125,0.319091796875,0.88037109375,0.0638931297709926,-0.08946564885496183,0.3363358778625955
875,-0.2724609375,0.318115234375,0.87939453125,-0.02770992366412184,-0.2268702290076336,0.046259541984732866
876,-0.258056640625,0.313232421875,0.879638671875,-0.10404580152671716,-0.24213740458015268,-0.0911450381679389
877,-0.26513671875,0.319091796875,0.884521484375,-0.07351145038167917,0.30748091603053435,0.08442748091603058
878,-0.2734375,0.324951171875,0.884521484375,-0.1651145038167936,-0.0818320610687023,0.16076335877862596
879,-0.265380859375,0.31640625,0.8798828125,-0.07351145038167917,-0.12000000000000001,0.05389312977099242
880,-0.264892578125,0.31689453125,0.8876953125,0.21656488549618347,0.330381679389313,0.22946564885496185
881,-0.269775390625,0.318115234375,0.879638671875,-0.04297709923664095,-0.05129770992366414,-0.0911450381679389
882,-0.263427734375,0.3017578125,0.88525390625,-0.18801526717557238,-0.04366412213740459,-0.11404580152671753
883,-0.26513671875,0.332275390625,0.87841796875,-0.13458015267175538,-0.013129770992366424,-0.15984732824427478
884,-0.27099609375,0.31982421875,0.88037109375,-0.19564885496183182,0.04793893129770993,0.22946564885496185
885,-0.261962890625,0.313232421875,0.889404296875,-0.02770992366412184,-0.02076335877862595,0.03862595419847331
886,-0.273193359375,0.316650390625,0.88134765625,-0.11167938931297683,-0.05893129770992367,0.00045801526717559327
887,-0.27001953125,0.3134765625,0.882568359375,0.14022900763358814,0.025038167938931266,0.00045801526717559327
888,-0.264404296875,0.3134765625,0.882080078125,-0.08114503816793861,-0.30320610687022903,0.023358778625954202
889,-0.264404296875,0.31982421875,0.88720703125,0.010458015267175824,0.07083969465648854,0.29053435114503817
890,-0.27001953125,0.31640625,0.883544921875,-0.3635877862595418,-0.013129770992366424,0.11496183206106875
891,-0.267333984375,0.317626953125,0.882568359375,0.0791603053435117,0.21587786259541986,0.05389312977099242
892,-0.26513671875,0.313232421875,0.883544921875,-0.13458015267175538,0.17770992366412214,0.030992366412213757
893,-0.2734375,0.314208984375,0.880126953125,0.13259541984732848,0.15480916030534353,0.26
894,-0.268798828125,0.321533203125,0.875244140625,0.08679389312977137,-0.16580152671755727,0.023358778625954202
895,-0.26611328125,0.314208984375,0.88671875,-0.020076335877862395,0.0021374045801526576,0.03862595419847331
896,-0.266357421875,0.322509765625,0.881591796875,-0.24145038167938893,-0.05129770992366414,0.1454961832061069
897,-0.268798828125,0.321044921875,0.881591796875,-0.07351145038167917,-0.12763358778625955,0.07679389312977103
898,-0.26953125,0.313720703125,0.881103515625,0.1783969465648858,-0.028396946564885506,0.27526717557251906
899,-0.27001953125,0.31689453125,0.881103515625,0.09442748091603081,0.04793893129770993,0.00045801526717559327
900,-0.265625,0.3173828125,0.881591796875,0.20129770992366436,0.03267175572519082,0.19129770992366413
901,-0.265625,0.318115234375,0.878173828125,0.19366412213740491,0.04793893129770993,-0.007175572519083934
902,-0.271240234375,0.318359375,0.880615234375,-0.22618320610687004,0.16244274809160303,0.00045801526717559327
903,-0.26708984375,0.31884765625,0.88037109375,0.05625954198473315,-0.10473282442748093,0.12259541984732825
904,-0.265625,0.31396484375,0.878173828125,0.08679389312977137,-0.20396946564885496,0.37450381679389316
905,-0.263671875,0.317138671875,0.8828125,-0.08877862595419828,-0.1352671755725191,0.29053435114503817
906,-0.2666015625,0.32080078125,0.888427734375,0.04862595419847349,-0.11236641221374047,-0.0377099236641221
907,-0.2724609375,0.31689453125,0.889892578125,-0.1651145038167936,0.2769465648854961,0.030992366412213757
908,-0.26611328125,0.3154296875,0.882568359375,0.025725190839694934,0.07083969465648854,0.2370992366412214
909,-0.263671875,0.317138671875,0.88037109375,0.0791603053435117,-0.2116030534351145,0.09969465648854964
910,-0.26904296875,0.317138671875,0.878173828125,-0.12694656488549594,-0.11236641221374047,0.16839694656488552
911,-0.268310546875,0.310791015625,0.88427734375,0.025725190839694934,0.2540458015267176,0.2218320610687023
912,-0.27099609375,0.318603515625,0.8779296875,-0.07351145038167917,0.15480916030534353,0.27526717557251906
913,-0.267822265625,0.3154296875,0.883544921875,0.0791603053435117,-0.10473282442748093,0.015725190839694675
914,-0.265625,0.31494140625,0.881591796875,-0.19564885496183182,-0.03603053435114503,0.11496183206106875
915,-0.267578125,0.3193359375,0.880615234375,0.1631297709923667,-0.3184732824427481,-0.04534351145038165
916,-0.270263671875,0.316162109375,0.879150390625,0.09442748091603081,-0.0818320610687023,-0.0911450381679389
917,-0.2646484375,0.31396484375,0.890869140625,-0.05061068702290039,0.21587786259541986,0.06916030534351147
918,-0.265380859375,0.318603515625,0.880615234375,-0.03534351145038128,0.055572519083969485,0.008091603053435148
919,-0.266357421875,0.318359375,0.87890625,-0.15748091603053416,-0.09709923664122139,0.37450381679389316
920,-0.2626953125,0.319091796875,0.877685546875,-0.0658778625954195,-0.15053435114503816,0.06152671755725192
921,-0.266845703125,0.306640625,0.88330078125,-0.19564885496183182,-0.03603053435114503,-0.014809160305343488
922,-0.276123046875,0.322509765625,0.880859375,0.07152671755725226,0.07083969465648854,0.07679389312977103
923,-0.26220703125,0.313720703125,0.8857421875,-0.07351145038167917,-0.14290076335877863,0.16076335877862596
924,-0.266845703125,0.310791015625,0.89111328125,0.025725190839694934,0.08610687022900765,0.35923664122137405
925,-0.27001953125,0.31884765625,0.88623046875,-0.11167938931297683,0.08610687022900765,0.16839694656488552
926,-0.263671875,0.314697265625,0.8798828125,-0.004809160305343285,0.055572519083969485,0.07679389312977103
927,-0.267578125,0.314453125,0.8759765625,0.19366412213740491,0.2311450381679389,0.11496183206106875
928,-0.26708984375,0.3173828125,0.8740234375,-0.12694656488549594,-0.14290076335877863,0.3058015267175573
929,-0.268310546875,0.31884765625,0.8837890625,0.1783969465648858,0.12427480916030531,-0.10641221374045799
930,-0.268798828125,0.31591796875,0.8857421875,-0.08877862595419828,-0.0818320610687023,0.3363358778625955
931,-0.267822265625,0.319091796875,0.87451171875,-0.2109160305343507,-0.18106870229007635,0.19893129770992368
932,-0.268310546875,0.31494140625,0.885009765625,0.08679389312977137,0.04793893129770993,0.13786259541984736
933,-0.263916015625,0.31396484375,0.883056640625,0.04862595419847349,-0.04366412213740459,0.27526717557251906
934,-0.265625,0.3173828125,0.887451171875,-0.14221374045801505,0.07083969465648854,0.2141984732824428
935,-0.2724609375,0.319091796875,0.885009765625,-0.2109160305343507,-0.11236641221374047,0.12259541984732825
936,-0.2705078125,0.32177734375,0.876708984375,-0.30251908396946536,0.07083969465648854,-0.007175572519083934
937,-0.267333984375,0.31591796875,0.88671875,0.08679389312977137,-0.07419847328244275,0.3363358778625955
938,-0.263427734375,0.32080078125,0.87841796875,-0.09641221374045772,0.009770992366412212,0.2981679389312977
939,-0.265625,0.31005859375,0.8857421875,-0.23381679389312948,0.055572519083969485,0.3668702290076336
940,-0.265380859375,0.316162109375,0.880615234375,-0.32541984732824414,0.025038167938931266,0.2141984732824428
941,-0.267578125,0.3154296875,0.87744140625,-0.08114503816793861,0.1853435114503817,-0.0377099236641221
942,-0.265869140625,0.3203125,0.876708984375,-0.13458015267175538,-0.2116030534351145,0.023358778625954202
943,-0.264892578125,0.31884765625,0.88525390625,0.04862595419847349,0.025038167938931266,0.08442748091603058
944,-0.268798828125,0.317626953125,0.88134765625,-0.08877862595419828,-0.18870229007633588,0.10732824427480919
945,-0.270263671875,0.31396484375,0.88720703125,-0.25671755725190826,-0.12763358778625955,-0.09877862595419845
946,-0.265869140625,0.31494140625,0.880859375,0.04099236641221404,-0.05129770992366414,0.15312977099236647
947,-0.269287109375,0.31689453125,0.878662109375,0.07152671755725226,0.040305343511450376,0.13786259541984736
948,-0.266845703125,0.319091796875,0.882080078125,-0.1651145038167936,0.32274809160305346,0.023358778625954202
949,-0.267822265625,0.317138671875,0.8818359375,-0.17274809160305304,0.1853435114503817,0.06916030534351147
950,-0.26953125,0.31787109375,0.885986328125,-0.13458015267175538,0.0021374045801526576,0.19129770992366413
951,-0.267822265625,0.314453125,0.88720703125,0.04099236641221404,0.03267175572519082,-0.07587786259541981
952,-0.2685546875,0.3154296875,0.88037109375,-0.22618320610687004,-0.04366412213740459,0.24473282442748095
953,-0.268798828125,0.322265625,0.877197265625,0.05625954198473315,0.11664122137404581,0.08442748091603058
954,-0.270751953125,0.316650390625,0.87939453125,0.0028244274809163805,0.040305343511450376,0.26763358778625956
955,-0.2685546875,0.31591796875,0.884765625,0.10969465648854992,-0.16580152671755727,0.17603053435114507
956,-0.265625,0.31787109375,0.87890625,-0.02770992366412184,0.040305343511450376,0.20656488549618324
957,-0.267822265625,0.318603515625,0.881591796875,-0.1651145038167936,0.08610687022900765,0.030992366412213757
958,-0.269775390625,0.318115234375,0.8828125,0.025725190839694934,-0.028396946564885506,-0.1445801526717557
959,-0.26904296875,0.320556640625,0.884033203125,-0.10404580152671716,-0.08946564885496183,0.19893129770992368
960,-0.267578125,0.3154296875,0.880126953125,-0.05061068702290039,0.11664122137404581,-0.09877862595419845
961,-0.264404296875,0.31640625,0.87646484375,0.0791603053435117,0.2540458015267176,0.24473282442748095
962,-0.2646484375,0.318359375,0.88916015625,-0.02770992366412184,0.14717557251908397,0.023358778625954202
963,-0.270263671875,0.3173828125,0.89013671875,-0.04297709923664095,-0.04366412213740459,0.16839694656488552
964,-0.26611328125,0.319580078125,0.887451171875,0.14022900763358814,0.009770992366412212,0.24473282442748095
965,-0.265625,0.3193359375,0.885986328125,-0.24908396946564837,0.1013740458015267,0.22946564885496185
966,-0.26611328125,0.31591796875,0.88525390625,-0.11167938931297683,0.0021374045801526576,0.16839694656488552
967,-0.26806640625,0.320068359375,0.887939453125,0.09442748091603081,0.2311450381679389,0.06916030534351147
968,-0.26611328125,0.3173828125,0.88330078125,-0.20328244274809126,0.03267175572519082,-0.07587786259541981
969,-0.265380859375,0.318603515625,0.880615234375,-0.012442748091602729,-0.10473282442748093,0.07679389312977103
970,-0.26513671875,0.318115234375,0.8837890625,-0.09641221374045772,0.06320610687022898,0.12259541984732825
971,-0.266845703125,0.31396484375,0.885986328125,-0.14221374045801505,0.33801526717557256,-0.13694656488549617
972,-0.266357421875,0.3203125,0.879638671875,-0.05824427480916006,-0.28030534351145037,-0.0911450381679389
973,-0.265869140625,0.31787109375,0.884033203125,-0.15748091603053416,0.2082442748091603,0.2829007633587786
974,-0.26953125,0.31884765625,0.880859375,0.05625954198473315,0.04793893129770993,0.3516030534351145
975,-0.26416015625,0.3193359375,0.877197265625,-0.03534351145038128,0.08610687022900765,0.19893129770992368
976,-0.26953125,0.31884765625,0.88623046875,-0.08877862595419828,0.03267175572519082,0.2141984732824428
977,-0.26904296875,0.314697265625,0.88232421875,-0.09641221374045772,-0.04366412213740459,0.26
978,-0.265869140625,0.3173828125,0.885009765625,-0.11931297709923627,0.14717557251908397,0.22946564885496185
979,-0.27001953125,0.318359375,0.881591796875,0.11732824427480937,-0.04366412213740459,0.31343511450381684
980,-0.2626953125,0.31494140625,0.88525390625,-0.020076335877862395,-0.03603053435114503,0.22946564885496185
981,-0.266845703125,0.318359375,0.88037109375,0.010458015267175824,0.1013740458015267,0.00045801526717559327
982,-0.271240234375,0.317626953125,0.8837890625,-0.004809160305343285,0.01740458015267174,-0.10641221374045799
983,-0.267333984375,0.317626953125,0.886474609375,-0.09641221374045772,0.03267175572519082,0.09969465648854964
984,-0.26708984375,0.31640625,0.880859375,-0.004809160305343285,0.07083969465648854,0.10732824427480919
985,-0.26513671875,0.312744140625,0.88623046875,0.10206106870229026,0.025038167938931266,0.20656488549618324
986,-0.267578125,0.31982421875,0.884521484375,0.0791603053435117,-0.24213740458015268,0.00045801526717559327
987,-0.26513671875,0.319091796875,0.880615234375,-0.3330534351145036,-0.23450381679389315,0.030992366412213757
988,-0.261474609375,0.3173828125,0.885986328125,0.10206106870229026,0.17770992366412214,0.18366412213740463
989,-0.266845703125,0.318603515625,0.87939453125,0.010458015267175824,-0.12000000000000001,0.27526717557251906
990,-0.26318359375,0.319091796875,0.884033203125,0.07152671755725226,0.10900763358778626,0.2141984732824428
991,-0.26806640625,0.317626953125,0.885009765625,-0.05061068702290039,0.06320610687022898,0.09969465648854964
992,-0.2685546875,0.31494140625,0.88623046875,-0.03534351145038128,-0.1352671755725191,0.2218320610687023
993,-0.26513671875,0.3173828125,0.884033203125,0.09442748091603081,0.06320610687022898,0.10732824427480919
994,-0.266845703125,0.316650390625,0.884521484375,0.0638931297709926,-0.005496183206106869,0.2141984732824428
995,-0.271484375,0.322265625,0.8837890625,0.10206106870229026,0.16244274809160303,0.19893129770992368
996,-0.26904296875,0.31787109375,0.885498046875,-0.012442748091602729,0.15480916030534353,0.07679389312977103
997,-0.266845703125,0.3154296875,0.88720703125,0.20893129770992402,-0.02076335877862595,0.3058015267175573
998,-0.267333984375,0.3173828125,0.882080078125,-0.11931297709923627,0.055572519083969485,0.1302290076335878
999,-0.26416015625,0.318115234375,0.878662109375,-0.07351145038167917,0.11664122137404581,0.03862595419847331
1000,-0.26513671875,0.314697265625,0.87939453125,0.025725190839694934,-0.2268702290076336,0.08442748091603058
1001,-0.2666015625,0.31787109375,0.882568359375,-0.020076335877862395,0.0784732824427481,-0.03007633587786257
1002,-0.267333984375,0.31591796875,0.87890625,0.0333587786259546,0.17007633587786258,0.00045801526717559327
1003,-0.262939453125,0.3154296875,0.881103515625,-0.09641221374045772,0.10900763358778626,0.35923664122137405
1004,-0.26611328125,0.31298828125,0.88232421875,-0.004809160305343285,0.26931297709923663,-0.10641221374045799
1005,-0.2666015625,0.321533203125,0.88232421875,-0.07351145038167917,-0.05129770992366414,-0.0911450381679389
1006,-0.267822265625,0.3173828125,0.882080078125,-0.11931297709923627,0.22351145038167936,0.17603053435114507
1007,-0.26220703125,0.315185546875,0.885986328125,0.04862595419847349,0.11664122137404581,-0.07587786259541981
1008,-0.267578125,0.316650390625,0.882080078125,-0.05061068702290039,-0.028396946564885506,0.06152671755725192
1009,-0.267333984375,0.313720703125,0.8857421875,-0.24908396946564837,0.21587786259541986,-0.0911450381679389
1010,-0.266357421875,0.318359375,0.883056640625,0.08679389312977137,0.1013740458015267,0.20656488549618324
1011,-0.263916015625,0.31591796875,0.886474609375,0.05625954198473315,-0.2268702290076336,-0.052977099236641206
1012,-0.2666015625,0.318115234375,0.88525390625,0.010458015267175824,0.21587786259541986,0.05389312977099242
1013,-0.26513671875,0.314453125,0.875244140625,-0.35595419847328236,0.2540458015267176,0.2829007633587786
1014,-0.269775390625,0.31689453125,0.888427734375,-0.2185496183206106,-0.028396946564885506,0.15312977099236647
1015,-0.265869140625,0.322021484375,0.874755859375,-0.05061068702290039,-0.02076335877862595,0.11496183206106875
1016,-0.26416015625,0.319091796875,0.8818359375,-0.35595419847328236,-0.005496183206106869,0.03862595419847331
1017,-0.26708984375,0.31494140625,0.885986328125,-0.23381679389312948,-0.12000000000000001,0.2141984732824428
1018,-0.26513671875,0.319091796875,0.884521484375,-0.2185496183206106,0.025038167938931266,0.1454961832061069
1019,-0.268310546875,0.31640625,0.884521484375,0.13259541984732848,0.040305343511450376,0.015725190839694675
1020,-0.26416015625,0.31982421875,0.8818359375,-0.05061068702290039,-0.12763358778625955,-0.052977099236641206
1021,-0.265869140625,0.3173828125,0.885009765625,0.0028244274809163805,-0.08946564885496183,0.00045801526717559327
1022,-0.265625,0.318115234375,0.884521484375,-0.08114503816793861,-0.05893129770992367,0.046259541984732866
1023,-0.26708984375,0.31787109375,0.8828125,-0.04297709923664095,-0.14290076335877863,0.2523664122137405
1024,-0.266357421875,0.31201171875,0.8828125,0.0333587786259546,0.3151145038167939,0.09969465648854964
1025,-0.265869140625,0.3173828125,0.8837890625,-0.2796183206106866,0.3151145038167939,-0.0377099236641221
1026,-0.266845703125,0.318603515625,0.8779296875,0.0028244274809163805,-0.028396946564885506,0.2218320610687023
1027,-0.2646484375,0.31689453125,0.8828125,0.07152671755725226,0.025038167938931266,0.32870229007633595
1028,-0.2666015625,0.31494140625,0.884765625,-0.1498473282442745,0.21587786259541986,0.16839694656488552
1029,-0.265869140625,0.31640625,0.880859375,-0.13458015267175538,0.040305343511450376,0.15312977099236647
1030,-0.268310546875,0.3193359375,0.8779296875,-0.2109160305343507,0.0021374045801526576,0.2829007633587786
1031,-0.267822265625,0.318115234375,0.886962890625,-0.25671755725190826,0.025038167938931266,0.05389312977099242
1032,-0.267822265625,0.315185546875,0.876220703125,0.0028244274809163805,0.07083969465648854,0.2981679389312977
1033,-0.268798828125,0.315185546875,0.8818359375,-0.19564885496183182,-0.02076335877862595,-0.06061068702290073
1034,-0.27001953125,0.318115234375,0.88134765625,-0.24145038167938893,-0.013129770992366424,-0.12167938931297707
1035,-0.272216796875,0.3173828125,0.888916015625,-0.24145038167938893,-0.06656488549618322,-0.007175572519083934
1036,-0.264404296875,0.315185546875,0.881591796875,-0.1498473282442745,0.1929770992366412,0.1302290076335878
1037,-0.266845703125,0.31689453125,0.88037109375,0.01809160305343549,0.2082442748091603,-0.03007633587786257
1038,-0.263671875,0.32275390625,0.879638671875,-0.08877862595419828,0.10900763358778626,0.2141984732824428
1039,-0.2646484375,0.314697265625,0.87841796875,-0.10404580152671716,-0.08946564885496183,0.2523664122137405
1040,-0.2666015625,0.320556640625,0.8857421875,-0.12694656488549594,0.09374045801526715,-0.1445801526717557
1041,-0.26318359375,0.309814453125,0.879638671875,0.0333587786259546,0.0021374045801526576,0.16839694656488552
1042,-0.2646484375,0.315185546875,0.880615234375,-0.2643511450381677,0.09374045801526715,0.2829007633587786
1043,-0.269775390625,0.31494140625,0.877197265625,-0.09641221374045772,0.2311450381679389,-0.04534351145038165
1044,-0.267333984375,0.31689453125,0.8818359375,-0.05824427480916006,0.2082442748091603,0.15312977099236647
1045,-0.268310546875,0.3134765625,0.884521484375,-0.07351145038167917,0.17007633587786258,-0.18274809160305341
1046,-0.265380859375,0.318603515625,0.884033203125,0.04099236641221404,-0.02076335877862595,0.08442748091603058
1047,-0.26953125,0.318359375,0.880126953125,-0.03534351145038128,0.22351145038167936,-0.022442748091603015
1048,-0.269775390625,0.320556640625,0.8798828125,-0.02770992366412184,0.21587786259541986,0.06152671755725192
1049,-0.267822265625,0.314697265625,0.8818359375,-0.07351145038167917,0.07083969465648854,0.09206106870229008
1050,-0.266845703125,0.317138671875,0.885498046875,-0.14221374045801505,0.0784732824427481,0.10732824427480919
1051,-0.2685546875,0.316650390625,0.880126953125,-0.08877862595419828,0.040305343511450376,0.19893129770992368
1052,-0.271484375,0.316650390625,0.88427734375,-0.23381679389312948,0.0021374045801526576,0.030992366412213757
1053,-0.2685546875,0.320068359375,0.885498046875,-0.004809160305343285,-0.12000000000000001,0.24473282442748095
1054,-0.26611328125,0.32080078125,0.8798828125,-0.004809160305343285,-0.05129770992366414,-0.0377099236641221
1055,-0.26611328125,0.31494140625,0.8876953125,0.04099236641221404,0.1929770992366412,0.008091603053435148
1056,-0.265869140625,0.311767578125,0.885498046875,-0.1803816793893125,0.16244274809160303,0.18366412213740463
1057,-0.267333984375,0.314453125,0.882080078125,0.0028244274809163805,-0.24213740458015268,0.16076335877862596
1058,-0.266357421875,0.318603515625,0.882568359375,-0.04297709923664095,0.15480916030534353,0.18366412213740463
1059,-0.265380859375,0.318359375,0.87890625,0.010458015267175824,0.16244274809160303,0.08442748091603058
1060,-0.267822265625,0.3173828125,0.8837890625,0.07152671755725226,0.040305343511450376,0.046259541984732866
1061,-0.269287109375,0.292724609375,0.82958984375,-4.432290076335877,-4.501679389312977,-0.2361832061068702
1062,-0.25830078125,0.28662109375,0.853271484375,-6.134580152671756,-5.9825954198473275,0.09206106870229008
1063,-0.251220703125,0.287353515625,0.88330078125,-9.287251908396946,-9.29557251908397,0.19129770992366413
1064,-0.24560546875,0.298583984375,0.908447265625,-14.607862595419848,-14.791755725190841,0.47374045801526715
1065,-0.25537109375,0.380859375,0.783447265625,-12.920839694656488,-12.997862595419848,-0.7247328244274809
1066,-0.23291015625,0.2197265625,0.887451171875,-14.3712213740458,-15.349007633587787,-0.3964885496183206
1067,-0.203857421875,0.203369140625,0.908203125,-12.981908396946565,-13.173435114503818,-0.27435114503816793
1068,-0.184814453125,0.189453125,0.909423828125,-15.646030534351146,-15.341374045801528,0.2829007633587786
1069,-0.194580078125,0.239013671875,0.887939453125,-13.012442748091603,-12.310839694656488,0.00045801526717559327
1070,-0.171142578125,0.233154296875,0.904541015625,-15.195648854961833,-15.738320610687023,-0.17511450381679386
1071,-0.148681640625,0.1337890625,0.927001953125,-12.203282442748092,-13.013129770992366,0.10732824427480919
1072,-0.12353515625,0.05810546875,1.054443359375,-12.172748091603053,-12.005496183206107,0.8325190839694658
1073,-0.13818359375,0.150390625,0.918212890625,-15.470458015267175,-15.852824427480916,0.4508396946564886
1074,-0.126708984375,0.15234375,0.9443359375,-12.928473282442749,-13.211603053435114,0.6187786259541985
1075,-0.112548828125,0.18017578125,0.988525390625,-14.302519083969466,-13.96732824427481,-0.32015267175572515
1076,-0.080322265625,0.22265625,1.052978515625,-12.73763358778626,-11.669618320610688,-0.28198473282442743
1077,-0.080810546875,0.090576171875,0.97119140625,-19.722366412213738,-20.845190839694656,0.6951145038167938
1078,-0.085693359375,0.117431640625,0.811279296875,-10.867404580152671,-10.47114503816794,-0.7858015267175573
1079,-0.040283203125,0.1669921875,1.040771484375,-14.913206106870229,-15.150534351145039,-0.11404580152671753
1080,-0.07080078125,0.12353515625,0.838623046875,-12.165114503816794,-12.081832061068702,-0.38885496183206103
1081,-0.019775390625,0.090576171875,1.148681640625,-13.027709923664123,-12.898625954198474,-0.3506870229007633
1082,-0.0205078125,0.076416015625,0.92919921875,-17.24908396946565,-17.890992366412213,0.34396946564885494
1083,0.00244140625,-0.00244140625,0.9482421875,-13.348320610687022,-13.364274809160305,-0.08351145038167937
1084,0.02099609375,0.024169921875,0.977294921875,-13.4093893129771,-13.761221374045801,-0.6941984732824427
1085,0.015625,0.099609375,0.962158203125,-12.607862595419848,-12.394809160305345,-0.90793893129771
1086,0.018310546875,0.06396484375,0.970947265625,-14.630763358778625,-15.196335877862596,-0.17511450381679386
1087,0.04638671875,-0.053955078125,0.991455078125,-12.813969465648855,-13.371908396946566,0.07679389312977103
1088,0.08154296875,-0.097412109375,1.07568359375,-13.653664122137405,-13.60854961832061,-0.25145038167938927
1089,0.0810546875,-0.020263671875,0.984619140625,-14.997175572519085,-14.852824427480916,-0.6712977099236641
1090,0.07861328125,0.03369140625,0.912841796875,-14.195648854961833,-14.62381679389313,-0.6254961832061068
1091,0.082275390625,-0.02880859375,0.937255859375,-13.707099236641222,-14.043664122137406,-0.25145038167938927
1092,0.10888671875,-0.081787109375,0.99169921875,-13.0506106870229,-13.45587786259542,-0.2590839694656488
1093,0.136474609375,-0.113037109375,1.030029296875,-13.668931297709923,-14.28030534351145,-0.17511450381679386
1094,0.143798828125,-0.114013671875,0.98291015625,-14.417022900763358,-15.051297709923665,-0.12931297709923661
1095,0.16650390625,-0.136474609375,0.987548828125,-13.745267175572518,-13.745954198473283,-0.2361832061068702
1096,0.159423828125,-0.09423828125,0.89013671875,-15.012442748091603,-14.791755725190841,-0.74
1097,0.171875,-0.094970703125,0.910400390625,-10.623129770992366,-10.570381679389314,-0.10641221374045799
1098,0.196533203125,-0.1767578125,1.1259765625,-14.04297709923664,-15.043664122137406,0.09206106870229008
1099,0.21875,-0.20703125,0.951416015625,-14.691832061068704,-15.257404580152672,-0.022442748091603015
1100,0.2373046875,-0.192626953125,1.01123046875,-13.21854961832061,-13.257404580152672,-0.823969465648855
1101,0.229248046875,-0.12451171875,0.88720703125,-15.920839694656488,-16.60091603053435,-0.9308396946564885
1102,0.2314453125,-0.115234375,0.8359375,-12.989541984732824,-12.791755725190841,-0.4117557251908397
1103,0.249755859375,-0.19580078125,0.95166015625,-12.668931297709923,-12.96732824427481,-0.0377099236641221
1104,0.259521484375,-0.23974609375,0.9501953125,-13.493358778625954,-14.226870229007634,-0.052977099236641206
1105,0.282470703125,-0.266845703125,0.96923828125,-13.294885496183205,-13.913893129770992,0.08442748091603058
1106,0.288818359375,-0.29638671875,0.952392578125,-14.004809160305344,-14.448244274809161,-0.007175572519083934
1107,0.316162109375,-0.322265625,0.95751953125,-14.004809160305344,-13.62381679389313,-0.4117557251908397
1108,0.3232421875,-0.25341796875,0.917236328125,-14.271984732824427,-14.486412213740458,-1.0682442748091603
1109,0.334228515625,-0.20458984375,0.8349609375,-14.088778625954198,-14.257404580152672,-0.9690076335877862
1110,0.326904296875,-0.22314453125,0.83642578125,-13.668931297709923,-14.120000000000001,-0.5186259541984732
1111,0.337158203125,-0.291748046875,0.85888671875,-13.539160305343511,-14.379541984732825,-0.35832061068702287
1112,0.34521484375,-0.29541015625,0.851318359375,-13.333053435114504,-13.723053435114505,-0.22854961832061066
1113,0.3623046875,-0.328369140625,0.85546875,-13.195648854961831,-13.829923664122138,-0.29725190839694654
1114,0.384033203125,-0.386474609375,0.880859375,-14.271984732824427,-14.7993893129771,-0.24381679389312974
1115,0.39208984375,-0.35546875,0.762939453125,-14.997175572519085,-15.234503816793893,-0.6865648854961832
1116,0.40380859375,-0.343505859375,0.842529296875,-10.684198473282443,-10.30320610687023,-0.7705343511450382
1117,0.426025390625,-0.372314453125,0.93505859375,-14.24145038167939,-15.562748091603053,-0.5186259541984732
