sample,Accel X,Accel Y,Accel Z,Gyro X,Gyro Y,Gyro Z
0,0.738525390625,-0.7001953125,0.028564453125,-1.9236641221374047,-0.007633587786259542,-0.3511450381679389
1,0.735107421875,-0.699462890625,0.031005859375,-2.49618320610687,0.15267175572519084,-0.2748091603053435
2,0.734619140625,-0.70166015625,0.034423828125,-1.984732824427481,0.183206106870229,-0.061068702290076333
3,0.733642578125,-0.699462890625,0.033935546875,-2.0839694656488548,-0.09923664122137404,-0.15267175572519084
4,0.738525390625,-0.703125,0.03173828125,-2.1755725190839694,0.12213740458015267,-0.3282442748091603
5,0.7333984375,-0.701171875,0.03271484375,-1.786259541984733,0.06870229007633588,-0.3282442748091603
6,0.734130859375,-0.701171875,0.03369140625,-1.9312977099236641,-0.007633587786259542,-0.5190839694656488
7,0.737060546875,-0.699951171875,0.023681640625,-2.1297709923664123,0.33587786259541985,-0.42748091603053434
8,0.737548828125,-0.70068359375,0.0322265625,-1.8625954198473282,0.1450381679389313,-0.2824427480916031
9,0.734619140625,-0.701904296875,0.033203125,-2.236641221374046,-0.11450381679389313,-0.25190839694656486
10,0.73828125,-0.701904296875,0.032470703125,-2.1068702290076335,0.1984732824427481,-0.2824427480916031
11,0.73681640625,-0.70263671875,0.032470703125,-2.030534351145038,-0.0916030534351145,-0.45038167938931295
12,0.73583984375,-0.701171875,0.028564453125,-2.5419847328244276,-0.10687022900763359,-0.21374045801526717
13,0.7373046875,-0.702392578125,0.04052734375,-1.9541984732824427,0.06870229007633588,-0.35877862595419846
14,0.735107421875,-0.701416015625,0.033935546875,-1.9770992366412214,-0.05343511450381679,-0.061068702290076333
15,0.73388671875,-0.7021484375,0.031982421875,-2.1374045801526718,-0.061068702290076333,-0.40458015267175573
16,0.734619140625,-0.699951171875,0.030029296875,-2.3053435114503817,0.07633587786259542,-0.09923664122137404
17,0.734375,-0.702392578125,0.029541015625,-2.0229007633587788,-0.022900763358778626,-0.25190839694656486
18,0.733154296875,-0.70068359375,0.03076171875,-2.0,0.015267175572519083,-0.12213740458015267
19,0.73388671875,-0.699951171875,0.0341796875,-2.0763358778625953,-0.25190839694656486,-0.4732824427480916
20,0.7392578125,-0.698974609375,0.0341796875,-2.145038167938931,0.03816793893129771,-0.4122137404580153
21,0.738525390625,-0.7021484375,0.03515625,-2.099236641221374,0.1297709923664122,-0.2900763358778626
22,0.733642578125,-0.699462890625,0.0244140625,-2.2290076335877864,-0.04580152671755725,-0.5725190839694656
23,0.733154296875,-0.700439453125,0.032470703125,-2.045801526717557,-0.007633587786259542,-0.24427480916030533
24,0.72998046875,-0.698486328125,0.03125,-1.984732824427481,0.3282442748091603,-0.22137404580152673
25,0.72802734375,-0.701904296875,0.03076171875,-2.2519083969465647,-0.11450381679389313,-0.2900763358778626
26,0.739990234375,-0.701171875,0.024658203125,-2.2977099236641223,0.16793893129770993,-0.40458015267175573
27,0.730712890625,-0.69921875,0.028076171875,-1.9541984732824427,0.16793893129770993,-0.2900763358778626
28,0.73583984375,-0.69970703125,0.027099609375,-1.9083969465648856,0.13740458015267176,-0.16030534351145037
29,0.735595703125,-0.7001953125,0.02880859375,-2.1526717557251906,0.04580152671755725,-0.22900763358778625
30,0.735107421875,-0.703369140625,0.04052734375,-2.16793893129771,0.05343511450381679,-0.11450381679389313
31,0.73291015625,-0.70166015625,0.03466796875,-1.9465648854961832,0.05343511450381679,-0.22900763358778625
32,0.73486328125,-0.701904296875,0.029052734375,-2.0381679389312977,-0.16030534351145037,-0.3053435114503817
33,0.731201171875,-0.704345703125,0.027099609375,-2.198473282442748,0.16793893129770993,-0.19083969465648856
34,0.7333984375,-0.702880859375,0.0400390625,-1.8931297709923665,0.015267175572519083,-0.26717557251908397
35,0.73779296875,-0.69921875,0.02734375,-2.381679389312977,-0.31297709923664124,-0.31297709923664124
36,0.734130859375,-0.70263671875,0.034423828125,-2.0916030534351147,-0.10687022900763359,-0.2595419847328244
37,0.73291015625,-0.701416015625,0.035888671875,-2.1603053435114505,0.06870229007633588,-0.022900763358778626
38,0.736572265625,-0.698974609375,0.036376953125,-2.2748091603053435,0.26717557251908397,-0.32061068702290074
39,0.734130859375,-0.701171875,0.03857421875,-2.3206106870229006,-0.16793893129770993,-0.25190839694656486
40,0.73193359375,-0.69775390625,0.03369140625,-1.9694656488549618,0.022900763358778626,0.007633587786259542
41,0.73779296875,-0.7041015625,0.029052734375,-2.122137404580153,0.007633587786259542,-0.24427480916030533
42,0.736572265625,-0.699951171875,0.033203125,-2.16793893129771,0.26717557251908397,-0.4732824427480916
43,0.734375,-0.7021484375,0.038818359375,-2.2595419847328246,0.015267175572519083,-0.24427480916030533
44,0.735595703125,-0.70166015625,0.03271484375,-2.0763358778625953,-0.03816793893129771,-0.5343511450381679
45,0.736572265625,-0.700927734375,0.03076171875,-1.786259541984733,0.030534351145038167,-0.2366412213740458
46,0.73291015625,-0.70166015625,0.031005859375,-2.1374045801526718,-0.29770992366412213,-0.48091603053435117
47,0.73095703125,-0.69970703125,0.0322265625,-1.8091603053435115,0.030534351145038167,-0.1450381679389313
48,0.736572265625,-0.7001953125,0.034912109375,-2.183206106870229,0.030534351145038167,-0.3511450381679389
49,0.739013671875,-0.70458984375,0.033203125,-2.099236641221374,0.0916030534351145,-0.17557251908396945
50,0.73486328125,-0.698974609375,0.0361328125,-1.984732824427481,0.20610687022900764,-0.3969465648854962
51,0.73388671875,-0.704345703125,0.02978515625,-1.9618320610687023,-0.06870229007633588,-0.31297709923664124
52,0.734130859375,-0.704833984375,0.03271484375,-2.0610687022900764,0.06870229007633588,-0.37404580152671757
53,0.736572265625,-0.69873046875,0.03076171875,-2.1374045801526718,-0.08396946564885496,-0.29770992366412213
54,0.73828125,-0.700927734375,0.03662109375,-1.9541984732824427,0.2366412213740458,-0.19083969465648856
55,0.73583984375,-0.697998046875,0.032470703125,-2.381679389312977,-0.05343511450381679,-0.22137404580152673
56,0.732177734375,-0.697998046875,0.0361328125,-2.1297709923664123,0.12213740458015267,-0.37404580152671757
57,0.7333984375,-0.699462890625,0.0302734375,-2.2061068702290076,-0.3435114503816794,-0.33587786259541985
58,0.736083984375,-0.70166015625,0.03759765625,-2.1755725190839694,0.19083969465648856,-0.2748091603053435
59,0.73828125,-0.70068359375,0.03076171875,-2.351145038167939,-0.015267175572519083,-0.1984732824427481
60,0.735595703125,-0.701416015625,0.0322265625,-2.427480916030534,0.007633587786259542,-0.2366412213740458
61,0.7333984375,-0.703369140625,0.036376953125,-2.2519083969465647,0.022900763358778626,-0.3816793893129771
62,0.733642578125,-0.703369140625,0.02783203125,-2.351145038167939,-0.06870229007633588,-0.4732824427480916
63,0.736083984375,-0.70068359375,0.0361328125,-2.1374045801526718,-0.1984732824427481,-0.1450381679389313
64,0.735107421875,-0.70166015625,0.03662109375,-2.366412213740458,0.19083969465648856,-0.31297709923664124
65,0.734130859375,-0.69580078125,0.028076171875,-2.1297709923664123,0.10687022900763359,-0.3053435114503817
66,0.736328125,-0.704345703125,0.034423828125,-2.351145038167939,-0.06870229007633588,-0.2366412213740458
67,0.7333984375,-0.701904296875,0.02880859375,-2.099236641221374,0.0916030534351145,-0.16030534351145037
68,0.737548828125,-0.701904296875,0.03076171875,-2.2442748091603053,0.2366412213740458,-0.3816793893129771
69,0.73681640625,-0.697509765625,0.03955078125,-2.068702290076336,0.08396946564885496,-0.5114503816793893
70,0.732666015625,-0.702392578125,0.03125,-2.49618320610687,0.1984732824427481,-0.4351145038167939
71,0.73095703125,-0.706787109375,0.030029296875,-2.183206106870229,-0.16030534351145037,-0.29770992366412213
72,0.731201171875,-0.699951171875,0.03271484375,-2.0839694656488548,0.06870229007633588,-0.32061068702290074
73,0.73388671875,-0.701904296875,0.031005859375,-2.198473282442748,0.06870229007633588,-0.3816793893129771
74,0.734130859375,-0.69970703125,0.027099609375,-2.0763358778625953,0.04580152671755725,-0.40458015267175573
75,0.73095703125,-0.7001953125,0.02978515625,-2.2213740458015265,0.25190839694656486,-0.2595419847328244
76,0.734130859375,-0.69873046875,0.03515625,-2.213740458015267,-0.1297709923664122,-0.22137404580152673
77,0.7353515625,-0.703125,0.031005859375,-1.9465648854961832,0.17557251908396945,-0.5725190839694656
78,0.734619140625,-0.702392578125,0.032958984375,-2.2519083969465647,0.32061068702290074,-0.35877862595419846
79,0.73388671875,-0.701416015625,0.033935546875,-2.3282442748091605,0.0,-0.061068702290076333
80,0.734375,-0.702880859375,0.0458984375,-2.435114503816794,-0.015267175572519083,-0.3435114503816794
81,0.730224609375,-0.7041015625,0.033935546875,-1.7557251908396947,0.09923664122137404,-0.20610687022900764
82,0.736328125,-0.7021484375,0.031982421875,-2.099236641221374,-0.022900763358778626,-0.31297709923664124
83,0.736083984375,-0.700439453125,0.036865234375,-1.9465648854961832,-0.1984732824427481,-0.37404580152671757
84,0.733642578125,-0.6982421875,0.031005859375,-2.0610687022900764,0.12213740458015267,-0.1297709923664122
85,0.73291015625,-0.70361328125,0.030029296875,-1.984732824427481,0.13740458015267176,-0.4351145038167939
86,0.732666015625,-0.702392578125,0.028564453125,-2.0916030534351147,-0.015267175572519083,-0.22900763358778625
87,0.734130859375,-0.703857421875,0.0302734375,-2.114503816793893,-0.15267175572519084,-0.08396946564885496
88,0.73291015625,-0.699462890625,0.03271484375,-2.0763358778625953,0.0,-0.2824427480916031
89,0.732177734375,-0.697265625,0.03515625,-2.198473282442748,0.0,-0.32061068702290074
90,0.731201171875,-0.702392578125,0.033447265625,-2.2900763358778624,0.15267175572519084,-0.32061068702290074
91,0.736572265625,-0.699951171875,0.036865234375,-1.9618320610687023,0.15267175572519084,-0.2824427480916031
92,0.731201171875,-0.698974609375,0.030029296875,-2.068702290076336,0.0,-0.29770992366412213
93,0.734619140625,-0.703125,0.033203125,-2.1908396946564888,0.12213740458015267,0.05343511450381679
94,0.735595703125,-0.698974609375,0.032958984375,-2.122137404580153,-0.24427480916030533,-0.3893129770992366
95,0.736083984375,-0.693603515625,0.03271484375,-2.0229007633587788,0.06870229007633588,-0.366412213740458
96,0.73876953125,-0.69970703125,0.03271484375,-2.145038167938931,-0.09923664122137404,-0.35877862595419846
97,0.730712890625,-0.700439453125,0.032470703125,-2.0916030534351147,0.03816793893129771,-0.33587786259541985
98,0.7314453125,-0.700927734375,0.027099609375,-2.145038167938931,0.015267175572519083,-0.29770992366412213
99,0.732421875,-0.70263671875,0.026123046875,-2.053435114503817,0.022900763358778626,-0.3282442748091603
100,0.733642578125,-0.69970703125,0.035400390625,-2.1297709923664123,0.09923664122137404,-0.37404580152671757
101,0.73583984375,-0.703369140625,0.03076171875,-2.0916030534351147,0.06870229007633588,-0.24427480916030533
102,0.73828125,-0.702392578125,0.031494140625,-2.1526717557251906,-0.21374045801526717,-0.33587786259541985
103,0.7333984375,-0.701171875,0.030517578125,-1.9083969465648856,0.030534351145038167,-0.5801526717557252
104,0.734619140625,-0.702392578125,0.032958984375,-1.9541984732824427,0.061068702290076333,-0.16793893129770993
105,0.734130859375,-0.698974609375,0.033935546875,-2.068702290076336,-0.07633587786259542,-0.25190839694656486
106,0.728515625,-0.698486328125,0.037109375,-1.8244274809160306,0.022900763358778626,-0.32061068702290074
107,0.73388671875,-0.699462890625,0.044189453125,-2.045801526717557,0.183206106870229,-0.22900763358778625
108,0.73828125,-0.700439453125,0.03076171875,-1.8931297709923665,-0.061068702290076333,-0.22900763358778625
109,0.734619140625,-0.700439453125,0.03955078125,-2.3740458015267176,-0.22137404580152673,-0.25190839694656486
110,0.732421875,-0.699462890625,0.0341796875,-2.1297709923664123,0.16030534351145037,-0.13740458015267176
111,0.73486328125,-0.7021484375,0.0302734375,-1.9694656488549618,0.22137404580152673,-0.3053435114503817
112,0.735595703125,-0.69970703125,0.02978515625,-1.9618320610687023,-0.061068702290076333,-0.17557251908396945
113,0.737548828125,-0.69970703125,0.029541015625,-2.3893129770992365,-0.05343511450381679,-0.2748091603053435
114,0.732177734375,-0.69970703125,0.0302734375,-2.183206106870229,0.1450381679389313,-0.29770992366412213
115,0.7333984375,-0.70166015625,0.035400390625,-1.9541984732824427,0.03816793893129771,-0.5114503816793893
116,0.73095703125,-0.701171875,0.040771484375,-2.3435114503816794,0.061068702290076333,-0.1297709923664122
117,0.73193359375,-0.703857421875,0.029296875,-2.053435114503817,-0.09923664122137404,-0.32061068702290074
118,0.734619140625,-0.700439453125,0.031494140625,-2.068702290076336,-0.09923664122137404,-0.2900763358778626
119,0.73486328125,-0.701171875,0.032958984375,-1.816793893129771,0.0916030534351145,-0.0916030534351145
120,0.735107421875,-0.699951171875,0.02880859375,-2.114503816793893,0.015267175572519083,-0.29770992366412213
121,0.739501953125,-0.69873046875,0.036376953125,-2.312977099236641,-0.03816793893129771,-0.06870229007633588
122,0.731689453125,-0.702392578125,0.029052734375,-2.213740458015267,0.0916030534351145,-0.2366412213740458
123,0.7353515625,-0.70068359375,0.03271484375,-2.053435114503817,0.12213740458015267,-0.3969465648854962
124,0.739990234375,-0.7021484375,0.036376953125,-2.4198473282442747,-0.2366412213740458,-0.31297709923664124
125,0.733642578125,-0.701171875,0.034423828125,-2.1603053435114505,0.007633587786259542,-0.26717557251908397
126,0.733642578125,-0.699462890625,0.029541015625,-2.16793893129771,0.26717557251908397,-0.21374045801526717
127,0.7333984375,-0.701904296875,0.032470703125,-2.183206106870229,-0.1297709923664122,-0.20610687022900764
128,0.73193359375,-0.70068359375,0.024658203125,-2.1755725190839694,0.2824427480916031,-0.2595419847328244
129,0.737060546875,-0.699951171875,0.028564453125,-2.427480916030534,0.061068702290076333,0.007633587786259542
130,0.7314453125,-0.70068359375,0.033203125,-2.3282442748091605,0.030534351145038167,-0.37404580152671757
131,0.73486328125,-0.70068359375,0.0341796875,-2.045801526717557,0.10687022900763359,-0.35877862595419846
132,0.735107421875,-0.7060546875,0.030029296875,-2.1374045801526718,-0.030534351145038167,-0.20610687022900764
133,0.736083984375,-0.703369140625,0.02587890625,-2.2213740458015265,0.0916030534351145,-0.35877862595419846
134,0.736083984375,-0.69873046875,0.033447265625,-2.1297709923664123,0.09923664122137404,-0.22137404580152673
135,0.738525390625,-0.699951171875,0.035888671875,-2.213740458015267,-0.16793893129770993,-0.31297709923664124
136,0.737060546875,-0.703125,0.034912109375,-2.0610687022900764,0.0916030534351145,-0.2824427480916031
137,0.734375,-0.699951171875,0.037109375,-1.9389312977099236,-0.20610687022900764,-0.31297709923664124
138,0.73486328125,-0.703369140625,0.02978515625,-2.1908396946564888,0.21374045801526717,-0.1984732824427481
139,0.734619140625,-0.70458984375,0.031005859375,-2.2595419847328246,0.030534351145038167,-0.6335877862595419
140,0.734130859375,-0.707275390625,0.036376953125,-2.1603053435114505,0.20610687022900764,-0.21374045801526717
141,0.73583984375,-0.701904296875,0.03271484375,-1.8854961832061068,-0.03816793893129771,-0.16793893129770993
142,0.73583984375,-0.7001953125,0.03076171875,-2.015267175572519,0.21374045801526717,-0.35877862595419846
143,0.734375,-0.701904296875,0.031494140625,-2.1297709923664123,0.2366412213740458,-0.29770992366412213
144,0.73876953125,-0.697998046875,0.033203125,-2.427480916030534,-0.16030534351145037,-0.31297709923664124
145,0.736328125,-0.7001953125,0.03955078125,-2.3587786259541983,0.061068702290076333,0.04580152671755725
146,0.736328125,-0.701416015625,0.035888671875,-2.3206106870229006,0.061068702290076333,-0.12213740458015267
147,0.731201171875,-0.703125,0.03271484375,-2.236641221374046,0.08396946564885496,-0.2366412213740458
148,0.7353515625,-0.7041015625,0.035400390625,-2.2442748091603053,0.16030534351145037,-0.29770992366412213
149,0.729248046875,-0.700927734375,0.0283203125,-2.0076335877862594,0.08396946564885496,-0.19083969465648856
150,0.7373046875,-0.701171875,0.03173828125,-2.0076335877862594,-0.061068702290076333,-0.22900763358778625
151,0.73486328125,-0.70068359375,0.03662109375,-2.1526717557251906,-0.11450381679389313,-0.3893129770992366
152,0.7392578125,-0.70263671875,0.034912109375,-2.0763358778625953,-0.10687022900763359,-0.3893129770992366
153,0.73095703125,-0.7001953125,0.036376953125,-2.2900763358778624,0.09923664122137404,-0.11450381679389313
154,0.732177734375,-0.701904296875,0.03173828125,-2.045801526717557,0.06870229007633588,-0.2366412213740458
155,0.738525390625,-0.700927734375,0.036865234375,-1.9312977099236641,-0.04580152671755725,-0.183206106870229
156,0.734375,-0.702392578125,0.03662109375,-2.236641221374046,-0.13740458015267176,-0.31297709923664124
157,0.73583984375,-0.698974609375,0.036865234375,-2.198473282442748,-0.13740458015267176,-0.19083969465648856
158,0.736083984375,-0.703857421875,0.037841796875,-1.9236641221374047,0.10687022900763359,-0.2900763358778626
159,0.733642578125,-0.701416015625,0.02734375,-2.3206106870229006,-0.24427480916030533,-0.15267175572519084
160,0.735107421875,-0.69970703125,0.034912109375,-2.030534351145038,-0.11450381679389313,-0.33587786259541985
161,0.735595703125,-0.702880859375,0.02783203125,-2.1297709923664123,-0.12213740458015267,-0.26717557251908397
162,0.733154296875,-0.703125,0.033447265625,-1.8931297709923665,0.10687022900763359,-0.15267175572519084
163,0.734619140625,-0.701171875,0.037841796875,-2.0,0.06870229007633588,-0.35877862595419846
164,0.7353515625,-0.70361328125,0.0302734375,-2.045801526717557,-0.015267175572519083,-0.21374045801526717
165,0.737060546875,-0.700927734375,0.02734375,-1.8778625954198473,0.030534351145038167,-0.31297709923664124
166,0.735595703125,-0.69970703125,0.032958984375,-2.2595419847328246,0.07633587786259542,-0.366412213740458
167,0.73388671875,-0.70361328125,0.02587890625,-1.8931297709923665,0.04580152671755725,-0.549618320610687
168,0.735107421875,-0.7021484375,0.037353515625,-2.198473282442748,0.015267175572519083,-0.20610687022900764
169,0.737548828125,-0.703125,0.03271484375,-2.122137404580153,-0.1984732824427481,-0.19083969465648856
170,0.733642578125,-0.697998046875,0.031005859375,-2.183206106870229,-0.1297709923664122,-0.09923664122137404
171,0.72998046875,-0.701416015625,0.03466796875,-1.9389312977099236,-0.007633587786259542,-0.0916030534351145
172,0.734130859375,-0.7021484375,0.028076171875,-2.0229007633587788,0.015267175572519083,-0.16030534351145037
173,0.73583984375,-0.699951171875,0.0390625,-2.0381679389312977,-0.2595419847328244,-0.1450381679389313
174,0.734619140625,-0.69775390625,0.033935546875,-2.0381679389312977,0.061068702290076333,-0.3435114503816794
175,0.734130859375,-0.700927734375,0.032958984375,-2.0763358778625953,0.03816793893129771,-0.4198473282442748
176,0.734619140625,-0.7001953125,0.03515625,-2.0076335877862594,0.15267175572519084,-0.42748091603053434
177,0.73291015625,-0.699951171875,0.034423828125,-1.9389312977099236,-0.16030534351145037,-0.33587786259541985
178,0.73193359375,-0.703369140625,0.0302734375,-2.0610687022900764,0.022900763358778626,-0.3893129770992366
179,0.73291015625,-0.703857421875,0.031005859375,-1.8778625954198473,-0.015267175572519083,-0.33587786259541985
180,0.737548828125,-0.699951171875,0.03173828125,-2.1603053435114505,-0.09923664122137404,-0.3511450381679389
181,0.7373046875,-0.69775390625,0.0322265625,-2.114503816793893,-0.03816793893129771,-0.22137404580152673
182,0.733642578125,-0.700927734375,0.033447265625,-1.8473282442748091,-0.007633587786259542,-0.1450381679389313
183,0.73193359375,-0.69580078125,0.0322265625,-2.0916030534351147,0.24427480916030533,-0.3969465648854962
184,0.734619140625,-0.704833984375,0.03466796875,-2.3435114503816794,0.04580152671755725,-0.2366412213740458
185,0.7392578125,-0.703857421875,0.0390625,-2.49618320610687,-0.10687022900763359,-0.42748091603053434
186,0.731201171875,-0.70361328125,0.0283203125,-2.3053435114503817,-0.07633587786259542,-0.32061068702290074
187,0.737060546875,-0.700927734375,0.035888671875,-2.1297709923664123,-0.06870229007633588,-0.5114503816793893
188,0.734130859375,-0.701171875,0.028564453125,-2.236641221374046,0.12213740458015267,-0.40458015267175573
189,0.736572265625,-0.69921875,0.02880859375,-2.045801526717557,0.04580152671755725,-0.4122137404580153
190,0.73681640625,-0.70166015625,0.03369140625,-2.122137404580153,0.10687022900763359,-0.45038167938931295
191,0.734375,-0.7021484375,0.034912109375,-2.2442748091603053,0.10687022900763359,-0.29770992366412213
192,0.736328125,-0.701416015625,0.02734375,-2.198473282442748,0.015267175572519083,-0.5190839694656488
193,0.7353515625,-0.702392578125,0.037109375,-2.114503816793893,-0.22900763358778625,-0.07633587786259542
194,0.731689453125,-0.700439453125,0.037109375,-1.7786259541984732,-0.17557251908396945,-0.15267175572519084
195,0.734375,-0.70361328125,0.031982421875,-2.0839694656488548,0.05343511450381679,-0.13740458015267176
196,0.736328125,-0.700439453125,0.034423828125,-2.1068702290076335,0.05343511450381679,-0.42748091603053434
197,0.7353515625,-0.70166015625,0.026123046875,-1.6717557251908397,0.05343511450381679,-0.3816793893129771
198,0.7353515625,-0.697998046875,0.0263671875,-2.122137404580153,-0.061068702290076333,-0.17557251908396945
199,0.732666015625,-0.7021484375,0.02880859375,-2.053435114503817,0.46564885496183206,-0.11450381679389313
200,0.73046875,-0.698486328125,0.030029296875,-2.2900763358778624,0.015267175572519083,-0.26717557251908397
201,0.7353515625,-0.702392578125,0.031494140625,-2.4198473282442747,-0.061068702290076333,-0.366412213740458
202,0.739013671875,-0.7001953125,0.031494140625,-1.8931297709923665,0.11450381679389313,-0.37404580152671757
203,0.734619140625,-0.704833984375,0.033203125,-2.2595419847328246,-0.03816793893129771,-0.2748091603053435
204,0.734375,-0.703125,0.0361328125,-2.0381679389312977,0.07633587786259542,-0.21374045801526717
205,0.733642578125,-0.700927734375,0.035888671875,-1.9694656488549618,0.10687022900763359,-0.12213740458015267
206,0.737060546875,-0.70263671875,0.029541015625,-2.114503816793893,-0.16030534351145037,-0.15267175572519084
207,0.73193359375,-0.698974609375,0.033935546875,-2.1603053435114505,-0.16793893129770993,-0.21374045801526717
208,0.735107421875,-0.703125,0.0283203125,-2.0610687022900764,0.2748091603053435,-0.1297709923664122
209,0.736328125,-0.70361328125,0.02978515625,-1.9541984732824427,0.17557251908396945,-0.31297709923664124
210,0.734375,-0.699951171875,0.027099609375,-2.198473282442748,-0.015267175572519083,-0.366412213740458
211,0.73583984375,-0.70068359375,0.03662109375,-1.8549618320610688,-0.03816793893129771,-0.366412213740458
212,0.730712890625,-0.69775390625,0.029541015625,-1.9312977099236641,-0.1984732824427481,-0.25190839694656486
213,0.734375,-0.7001953125,0.03466796875,-2.2061068702290076,-0.05343511450381679,-0.37404580152671757
214,0.735107421875,-0.701416015625,0.032958984375,-2.3969465648854964,-0.183206106870229,-0.4351145038167939
215,0.7333984375,-0.6982421875,0.03125,-2.0763358778625953,0.183206106870229,0.030534351145038167
216,0.73828125,-0.703369140625,0.031494140625,-2.114503816793893,-0.05343511450381679,-0.183206106870229
217,0.7314453125,-0.7001953125,0.036865234375,-2.2519083969465647,0.05343511450381679,-0.29770992366412213
218,0.7353515625,-0.704345703125,0.037841796875,-1.916030534351145,0.05343511450381679,-0.24427480916030533
219,0.737060546875,-0.703369140625,0.039306640625,-2.045801526717557,0.22137404580152673,-0.2595419847328244
220,0.73681640625,-0.700927734375,0.036865234375,-2.114503816793893,0.0,-0.3893129770992366
221,0.739013671875,-0.700439453125,0.030029296875,-2.2595419847328246,0.07633587786259542,-0.16030534351145037
222,0.735107421875,-0.701416015625,0.034423828125,-1.9236641221374047,0.030534351145038167,-0.29770992366412213
223,0.736083984375,-0.70166015625,0.034912109375,-2.2900763358778624,0.11450381679389313,-0.366412213740458
224,0.735595703125,-0.698974609375,0.0322265625,-2.1068702290076335,-0.03816793893129771,-0.3282442748091603
225,0.734130859375,-0.700439453125,0.0341796875,-2.0839694656488548,-0.04580152671755725,-0.40458015267175573
226,0.736572265625,-0.7001953125,0.031494140625,-1.8549618320610688,-0.05343511450381679,-0.32061068702290074
227,0.731689453125,-0.701171875,0.031005859375,-2.3282442748091605,0.08396946564885496,-0.3435114503816794
228,0.732421875,-0.7001953125,0.02880859375,-2.1526717557251906,-0.1450381679389313,-0.2366412213740458
229,0.736083984375,-0.697021484375,0.03125,-2.183206106870229,0.015267175572519083,-0.4122137404580153
230,0.732421875,-0.701416015625,0.0302734375,-1.9083969465648856,0.3282442748091603,-0.31297709923664124
231,0.73388671875,-0.704345703125,0.0361328125,-2.0916030534351147,0.24427480916030533,-0.26717557251908397
232,0.73828125,-0.700439453125,0.03173828125,-2.030534351145038,-0.015267175572519083,-0.17557251908396945
233,0.736328125,-0.703125,0.03271484375,-2.3435114503816794,0.04580152671755725,-0.31297709923664124
234,0.7314453125,-0.701904296875,0.03173828125,-2.2213740458015265,0.04580152671755725,-0.11450381679389313
235,0.734619140625,-0.7021484375,0.025146484375,-2.0839694656488548,0.05343511450381679,-0.22900763358778625
236,0.73486328125,-0.69970703125,0.031982421875,-2.236641221374046,-0.26717557251908397,-0.19083969465648856
237,0.7333984375,-0.70361328125,0.03271484375,-1.9389312977099236,-0.022900763358778626,-0.2900763358778626
238,0.73095703125,-0.70068359375,0.03369140625,-2.435114503816794,0.22137404580152673,-0.3511450381679389
239,0.737548828125,-0.698974609375,0.0322265625,-2.2061068702290076,-0.015267175572519083,-0.22900763358778625
240,0.734375,-0.701416015625,0.0302734375,-1.8625954198473282,-0.007633587786259542,-0.31297709923664124
241,0.732666015625,-0.698974609375,0.029296875,-2.236641221374046,-0.1450381679389313,-0.21374045801526717
242,0.73828125,-0.7001953125,0.030029296875,-2.2595419847328246,0.007633587786259542,-0.5190839694656488
243,0.735107421875,-0.704345703125,0.034423828125,-2.3587786259541983,-0.1297709923664122,-0.29770992366412213
244,0.738525390625,-0.702392578125,0.0302734375,-2.3893129770992365,-0.15267175572519084,-0.1450381679389313
245,0.737060546875,-0.70068359375,0.033935546875,-2.099236641221374,-0.11450381679389313,-0.5877862595419847
246,0.734619140625,-0.701416015625,0.03515625,-2.0839694656488548,0.19083969465648856,-0.31297709923664124
247,0.73486328125,-0.700927734375,0.0244140625,-2.0610687022900764,0.2900763358778626,-0.5190839694656488
248,0.737060546875,-0.6982421875,0.033203125,-2.0381679389312977,0.1984732824427481,-0.26717557251908397
249,0.736083984375,-0.698974609375,0.0361328125,-2.0763358778625953,-0.061068702290076333,-0.45038167938931295
250,0.732666015625,-0.699951171875,0.04052734375,-1.6870229007633588,0.20610687022900764,-0.2595419847328244
251,0.734375,-0.704833984375,0.03369140625,-2.282442748091603,-0.06870229007633588,-0.15267175572519084
252,0.734619140625,-0.7001953125,0.02783203125,-2.1755725190839694,0.03816793893129771,-0.16793893129770993
253,0.735107421875,-0.70068359375,0.032958984375,-2.0076335877862594,-0.1450381679389313,-0.3816793893129771
254,0.732666015625,-0.700439453125,0.03369140625,-2.3587786259541983,0.1450381679389313,-0.2595419847328244
255,0.73388671875,-0.703857421875,0.033935546875,-2.2595419847328246,-0.25190839694656486,-0.5343511450381679
256,0.736083984375,-0.7001953125,0.033935546875,-2.2748091603053435,0.061068702290076333,-0.48854961832061067
257,0.729736328125,-0.697998046875,0.033203125,-1.8473282442748091,-0.17557251908396945,-0.061068702290076333
258,0.735107421875,-0.702392578125,0.032470703125,-2.030534351145038,-0.183206106870229,-0.08396946564885496
259,0.739501953125,-0.697998046875,0.033935546875,-2.015267175572519,-0.11450381679389313,-0.3053435114503817
260,0.733154296875,-0.703369140625,0.034912109375,-1.9923664122137406,0.09923664122137404,-0.3053435114503817
261,0.73486328125,-0.706787109375,0.034912109375,-2.0076335877862594,0.007633587786259542,-0.3435114503816794
262,0.7353515625,-0.701904296875,0.031494140625,-1.8396946564885497,-0.007633587786259542,-0.37404580152671757
263,0.73583984375,-0.70166015625,0.032470703125,-2.0839694656488548,0.06870229007633588,-0.5343511450381679
264,0.732666015625,-0.699462890625,0.02978515625,-1.9923664122137406,-0.007633587786259542,-0.17557251908396945
265,0.73291015625,-0.70263671875,0.036865234375,-2.1908396946564888,0.22900763358778625,-0.3816793893129771
266,0.732421875,-0.703125,0.03076171875,-2.2900763358778624,0.015267175572519083,-0.31297709923664124
267,0.732177734375,-0.704833984375,0.02880859375,-1.8702290076335877,-0.022900763358778626,-0.2748091603053435
268,0.737548828125,-0.69873046875,0.037109375,-2.099236641221374,0.17557251908396945,-0.24427480916030533
269,0.731201171875,-0.69921875,0.031982421875,-1.9236641221374047,0.061068702290076333,-0.05343511450381679
270,0.73681640625,-0.697998046875,0.025634765625,-1.6641221374045803,0.05343511450381679,-0.32061068702290074
271,0.731689453125,-0.703125,0.03076171875,-1.9541984732824427,-0.061068702290076333,-0.13740458015267176
272,0.734130859375,-0.6982421875,0.035888671875,-2.16793893129771,-0.2595419847328244,-0.17557251908396945
273,0.735107421875,-0.70556640625,0.033203125,-2.1068702290076335,0.16030534351145037,-0.44274809160305345
274,0.733642578125,-0.699462890625,0.033935546875,-2.2061068702290076,-0.13740458015267176,-0.5190839694656488
275,0.734619140625,-0.70361328125,0.037109375,-2.1908396946564888,-0.16030534351145037,-0.32061068702290074
276,0.734130859375,-0.701171875,0.030029296875,-2.2442748091603053,0.03816793893129771,-0.32061068702290074
277,0.734375,-0.702392578125,0.0322265625,-2.0763358778625953,0.015267175572519083,-0.10687022900763359
278,0.73388671875,-0.697265625,0.03466796875,-2.198473282442748,-0.17557251908396945,-0.2824427480916031
279,0.737060546875,-0.700439453125,0.0302734375,-2.2748091603053435,-0.183206106870229,-0.40458015267175573
280,0.735107421875,-0.70166015625,0.033935546875,-2.145038167938931,0.05343511450381679,-0.26717557251908397
281,0.734375,-0.701904296875,0.031982421875,-2.045801526717557,-0.183206106870229,-0.4198473282442748
282,0.734375,-0.698974609375,0.033203125,-2.2061068702290076,-0.08396946564885496,-0.06870229007633588
283,0.73486328125,-0.696533203125,0.032470703125,-2.282442748091603,-0.11450381679389313,-0.37404580152671757
284,0.73974609375,-0.699951171875,0.03759765625,-2.0076335877862594,-0.10687022900763359,-0.37404580152671757
285,0.735595703125,-0.699462890625,0.033935546875,-2.2595419847328246,0.04580152671755725,-0.07633587786259542
286,0.736572265625,-0.696533203125,0.03173828125,-2.053435114503817,0.04580152671755725,-0.37404580152671757
287,0.7353515625,-0.703369140625,0.03173828125,-1.9618320610687023,-0.05343511450381679,-0.2595419847328244
288,0.735107421875,-0.70068359375,0.04052734375,-2.2061068702290076,0.15267175572519084,-0.29770992366412213
289,0.733642578125,-0.699462890625,0.029052734375,-2.183206106870229,0.08396946564885496,-0.29770992366412213
290,0.738525390625,-0.699462890625,0.031005859375,-2.015267175572519,0.09923664122137404,-0.26717557251908397
291,0.7314453125,-0.70361328125,0.028564453125,-2.045801526717557,0.11450381679389313,-0.05343511450381679
292,0.7353515625,-0.69970703125,0.032470703125,-2.045801526717557,0.030534351145038167,-0.06870229007633588
293,0.73681640625,-0.703369140625,0.03271484375,-2.1755725190839694,-0.22137404580152673,-0.5267175572519084
294,0.732666015625,-0.705810546875,0.03857421875,-2.015267175572519,-0.15267175572519084,-0.4732824427480916
295,0.732666015625,-0.70068359375,0.036865234375,-1.9389312977099236,0.007633587786259542,-0.2748091603053435
296,0.7412109375,-0.70068359375,0.02880859375,-2.6564885496183206,0.007633587786259542,-0.061068702290076333
297,0.732421875,-0.70068359375,0.036376953125,-2.1908396946564888,0.19083969465648856,-0.5190839694656488
298,0.731201171875,-0.705322265625,0.0322265625,-2.2595419847328246,-0.022900763358778626,-0.12213740458015267
299,0.7373046875,-0.70263671875,0.029296875,-2.2442748091603053,-0.17557251908396945,-0.2748091603053435
300,0.736083984375,-0.702880859375,0.033447265625,-0.20366412213740492,-0.06961832061068703,0.15595419847328235
301,0.73046875,-0.701171875,0.0302734375,0.2848854961832057,0.23572519083969465,0.010916030534351029
302,0.736572265625,-0.698486328125,0.03173828125,0.14748091603053393,0.0983206106870229,0.3391603053435113
303,0.74072265625,-0.7001953125,0.0322265625,0.010076335877862164,-0.252824427480916,-0.019618320610687134
304,0.73779296875,-0.7001953125,0.03125,0.19328244274809103,0.037251908396946566,-0.11885496183206118
305,0.735107421875,-0.699462890625,0.0361328125,0.02534351145038105,0.006717557251908397,0.010916030534351029
306,0.738037109375,-0.7080078125,0.032958984375,0.010076335877862164,0.029618320610687022,0.018549618320610584
307,0.7353515625,-0.69873046875,0.031494140625,0.04061068702290038,0.06015267175572519,0.1635877862595419
308,0.73486328125,-0.701171875,0.03076171875,0.04061068702290038,0.25099236641221373,0.2399236641221373
309,0.733154296875,-0.70068359375,0.034423828125,0.017709923664121607,-0.008549618320610687,-0.10358778625954207
310,0.73779296875,-0.70263671875,0.032958984375,-0.302900763358779,-0.34442748091603054,0.02618320610687014
311,0.73583984375,-0.7021484375,0.037353515625,-0.020458015267176055,0.04488549618320611,0.06435114503816783
312,0.732421875,-0.701171875,0.03271484375,0.017709923664121607,-0.16885496183206108,-0.11122137404580162
313,0.7314453125,-0.702880859375,0.034423828125,0.3001526717557248,-0.0009160305343511452,-0.08832061068702302
314,0.735595703125,-0.7021484375,0.032470703125,-0.11206106870229071,-0.26045801526717555,0.14068702290076326
315,0.735107421875,-0.70263671875,0.03515625,0.0711450381679386,0.1593893129770992,-0.01198473282442758
316,0.733642578125,-0.70068359375,0.03173828125,0.05587786259541927,0.037251908396946566,0.10251908396946555
317,0.733154296875,-0.70166015625,0.030517578125,-0.11206106870229071,-0.10015267175572519,-0.3631297709923665
318,0.73486328125,-0.698974609375,0.03076171875,0.04061068702290038,0.1746564885496183,0.17885496183206095
319,0.733154296875,-0.70068359375,0.0361328125,0.010076335877862164,0.11358778625954198,-0.10358778625954207
320,0.734130859375,-0.701416015625,0.027587890625,0.1856488549618316,0.12885496183206105,0.0567175572519083
321,0.7353515625,-0.69775390625,0.02294921875,0.10931297709923626,0.23572519083969465,0.003282442748091474
322,0.73486328125,-0.703125,0.0341796875,0.2619847328244269,0.23572519083969465,0.018549618320610584
323,0.737060546875,-0.69921875,0.037353515625,0.09404580152671693,0.14412213740458013,0.17122137404580143
324,0.73095703125,-0.70361328125,0.035400390625,-0.04335877862595483,0.15175572519083969,0.0567175572519083
325,0.73681640625,-0.703857421875,0.037841796875,-0.020458015267176055,-0.01618320610687023,0.018549618320610584
326,0.733642578125,-0.703857421875,0.032958984375,-0.1807633587786266,-0.09251908396946565,-0.08068702290076346
327,0.734619140625,-0.702392578125,0.03173828125,0.23908396946564836,-0.10015267175572519,-0.05778625954198485
328,0.735595703125,-0.70361328125,0.039306640625,0.10167938931297682,0.014351145038167938,0.06435114503816783
329,0.733642578125,-0.7041015625,0.031494140625,0.13221374045801482,0.11358778625954198,0.22465648854961823
330,0.735595703125,-0.70068359375,0.033447265625,-0.012824427480916611,-0.05435114503816794,0.10251908396946555
331,0.73388671875,-0.6982421875,0.03125,0.10931297709923626,-0.07725190839694657,0.1101526717557251
332,0.73779296875,-0.704345703125,0.0283203125,0.07877862595419804,0.04488549618320611,0.12541984732824418
333,0.738037109375,-0.70166015625,0.03564453125,0.02534351145038105,-0.039083969465648856,-0.13412213740458023
334,0.736328125,-0.7021484375,0.03759765625,-0.005190839694657168,-0.0467175572519084,0.1330534351145037
335,0.731689453125,-0.702880859375,0.03515625,-0.1807633587786266,-0.10015267175572519,0.07198473282442738
336,0.73291015625,-0.697021484375,0.035400390625,0.07877862595419804,0.04488549618320611,-0.1570229007633589
337,0.732666015625,-0.69775390625,0.034912109375,-0.0280916030534355,0.05251908396946565,-0.11885496183206118
338,0.732421875,-0.705322265625,0.03271484375,0.12458015267175515,0.22045801526717557,0.20938931297709912
339,0.73583984375,-0.701904296875,0.03466796875,-0.03572519083969494,0.15175572519083969,-0.06541984732824435
340,0.734375,-0.699951171875,0.036865234375,-0.26473282442748136,-0.06961832061068703,0.2017557251908396
341,0.73095703125,-0.70361328125,0.0283203125,0.20854961832061014,-0.008549618320610687,0.06435114503816783
342,0.734619140625,-0.703857421875,0.03369140625,-0.19603053435114548,0.1746564885496183,-0.20282442748091611
343,0.734130859375,-0.700439453125,0.0361328125,0.20854961832061014,-0.06198473282442748,0.11778625954198463
344,0.736572265625,-0.701171875,0.024658203125,-0.1273282442748096,-0.06198473282442748,-0.019618320610687134
345,0.7353515625,-0.70361328125,0.026123046875,-0.11969465648855016,0.014351145038167938,-0.02725190839694669
346,0.732666015625,-0.697265625,0.034423828125,-0.020458015267176055,0.037251908396946566,-0.0730534351145039
347,0.732177734375,-0.699462890625,0.029052734375,0.04061068702290038,0.11358778625954198,0.19412213740458006
348,0.733154296875,-0.702392578125,0.030517578125,-0.07389312977099305,-0.10015267175572519,0.1635877862595419
349,0.732177734375,-0.699462890625,0.029541015625,-0.2800000000000007,-0.13832061068702292,-0.17229007633587795
350,0.734130859375,-0.7060546875,0.03271484375,0.10167938931297682,0.12885496183206105,-0.11122137404580162
351,0.73193359375,-0.7041015625,0.037353515625,-0.050992366412214274,-0.12305343511450381,0.1101526717557251
352,0.736083984375,-0.696533203125,0.031005859375,0.10931297709923626,0.07541984732824428,-0.03488549618320619
353,0.73486328125,-0.70068359375,0.0361328125,-0.1273282442748096,0.15175572519083969,0.11778625954198463
354,0.73681640625,-0.70458984375,0.0380859375,0.08641221374045749,0.0983206106870229,-0.17229007633587795
355,0.73681640625,-0.701416015625,0.032958984375,0.12458015267175515,0.11358778625954198,-0.01198473282442758
356,0.7353515625,-0.701171875,0.033447265625,0.00244274809160272,-0.13068702290076337,0.03381679389312969
357,0.733642578125,-0.70068359375,0.030517578125,0.02534351145038105,-0.08488549618320611,-0.11885496183206118
358,0.736572265625,-0.704833984375,0.0341796875,-0.09679389312977138,0.10595419847328244,-0.18755725190839706
359,0.73388671875,-0.7001953125,0.033447265625,-0.03572519083969494,0.014351145038167938,0.1635877862595419
360,0.733642578125,-0.701904296875,0.02783203125,0.07877862595419804,0.02198473282442748,0.17885496183206095
361,0.734130859375,-0.7021484375,0.030517578125,0.19328244274809103,0.07541984732824428,0.1330534351145037
362,0.73193359375,-0.701171875,0.033447265625,-0.005190839694657168,0.006717557251908397,0.2399236641221373
363,0.737060546875,-0.69921875,0.0302734375,-0.005190839694657168,0.0983206106870229,0.1864885496183205
364,0.7353515625,-0.7021484375,0.034912109375,0.08641221374045749,-0.2680916030534351,0.11778625954198463
365,0.7353515625,-0.7001953125,0.033935546875,0.13221374045801482,0.28916030534351145,-0.004351145038168025
366,0.72998046875,-0.700927734375,0.037841796875,-0.23419847328244314,0.12122137404580152,-0.05778625954198485
367,0.730712890625,-0.7041015625,0.02978515625,0.010076335877862164,0.02198473282442748,-0.0501526717557253
368,0.73779296875,-0.701171875,0.03515625,-0.16549618320610726,-0.14595419847328245,0.07198473282442738
369,0.73779296875,-0.69873046875,0.03369140625,0.13221374045801482,0.05251908396946565,-0.01198473282442758
370,0.735107421875,-0.701904296875,0.032958984375,0.02534351145038105,-0.08488549618320611,0.1330534351145037
371,0.73681640625,-0.703369140625,0.036376953125,-0.2418320610687026,-0.008549618320610687,0.04908396946564875
372,0.732421875,-0.7021484375,0.03515625,-0.15022900763358837,-0.02381679389312977,0.02618320610687014
373,0.737060546875,-0.700927734375,0.02490234375,0.07877862595419804,0.06015267175572519,0.4078625954198472
374,0.734375,-0.703125,0.030517578125,-0.07389312977099305,0.06015267175572519,-0.11122137404580162
375,0.734130859375,-0.70166015625,0.04248046875,0.23145038167938892,-0.10778625954198473,-0.09595419847328257
376,0.735107421875,-0.70166015625,0.034423828125,-0.21893129770992426,-0.07725190839694657,0.1483206106870228
377,0.73681640625,-0.7021484375,0.03857421875,0.24671755725190803,0.15175572519083969,-0.19519083969465661
378,0.7373046875,-0.697265625,0.042236328125,0.02534351145038105,0.05251908396946565,0.003282442748091474
379,0.736572265625,-0.7021484375,0.03125,0.10931297709923626,-0.11541984732824427,-0.0501526717557253
380,0.73388671875,-0.701416015625,0.035888671875,-0.2265648854961837,-0.1764885496183206,-0.1646564885496184
381,0.736328125,-0.701416015625,0.03662109375,0.00244274809160272,0.014351145038167938,-0.09595419847328257
382,0.738037109375,-0.69970703125,0.0283203125,0.19328244274809103,-0.13068702290076337,-0.03488549618320619
383,0.73486328125,-0.703125,0.030517578125,-0.05862595419847372,-0.0009160305343511452,0.010916030534351029
384,0.734619140625,-0.699462890625,0.037841796875,-0.11969465648855016,-0.031450381679389315,-0.3249618320610688
385,0.732421875,-0.701171875,0.0390625,-0.21893129770992426,0.14412213740458013,-0.1646564885496184
386,0.73779296875,-0.700439453125,0.03271484375,-0.10442748091603082,-0.10778625954198473,-0.004351145038168025
387,0.732421875,-0.7021484375,0.03857421875,-0.21893129770992426,0.18229007633587785,0.04145038167938922
388,0.73291015625,-0.704833984375,0.03369140625,-0.07389312977099305,0.014351145038167938,0.02618320610687014
389,0.731689453125,-0.701904296875,0.037109375,-0.26473282442748136,-0.13832061068702292,-0.04251908396946574
390,0.7373046875,-0.702392578125,0.041259765625,-0.06625954198473316,0.1593893129770992,-0.05778625954198485
391,0.73779296875,-0.70361328125,0.03515625,0.16274809160305304,-0.02381679389312977,-0.019618320610687134
392,0.73193359375,-0.701171875,0.032958984375,0.00244274809160272,0.12122137404580152,0.1635877862595419
393,0.736083984375,-0.703857421875,0.037353515625,0.25435114503816747,0.06015267175572519,0.03381679389312969
394,0.734130859375,-0.700439453125,0.029296875,0.13221374045801482,0.07541984732824428,0.12541984732824418
395,0.733154296875,-0.702880859375,0.03271484375,0.03297709923664094,0.16702290076335877,-0.1646564885496184
396,0.735595703125,-0.6982421875,0.035888671875,0.03297709923664094,-0.031450381679389315,-0.004351145038168025
397,0.736572265625,-0.701904296875,0.034423828125,0.17038167938931248,-0.19175572519083972,-0.0730534351145039
398,0.735595703125,-0.705322265625,0.03125,0.15511450381679337,-0.07725190839694657,0.1483206106870228
399,0.734619140625,-0.696533203125,0.0341796875,0.13221374045801482,-0.01618320610687023,0.278091603053435
400,0.732666015625,-0.702392578125,0.0322265625,-0.012824427480916611,-0.2299236641221374,-0.14938931297709934
401,0.73388671875,-0.7021484375,0.031005859375,0.08641221374045749,0.06015267175572519,-0.019618320610687134
402,0.732421875,-0.69775390625,0.034423828125,-0.005190839694657168,-0.02381679389312977,0.09488549618320599
403,0.7314453125,-0.7021484375,0.03564453125,0.04061068702290038,0.006717557251908397,0.06435114503816783
404,0.73681640625,-0.702392578125,0.036376953125,-0.19603053435114548,-0.11541984732824427,-0.20282442748091611
405,0.7373046875,-0.702392578125,0.03076171875,0.04061068702290038,0.04488549618320611,-0.1646564885496184
406,0.7333984375,-0.69921875,0.035400390625,-0.1273282442748096,0.006717557251908397,-0.19519083969465661
407,0.734130859375,-0.70556640625,0.032958984375,0.1856488549618316,-0.13832061068702292,-0.06541984732824435
408,0.733154296875,-0.705810546875,0.035888671875,0.04061068702290038,-0.14595419847328245,-0.0730534351145039
409,0.7333984375,-0.69970703125,0.03759765625,-0.2112977099236648,0.09068702290076336,-0.09595419847328257
410,0.7333984375,-0.700439453125,0.032470703125,0.15511450381679337,0.0983206106870229,-0.1417557251908398
411,0.734619140625,-0.703369140625,0.03466796875,-0.09679389312977138,-0.06198473282442748,-0.09595419847328257
412,0.73486328125,-0.7001953125,0.04150390625,-0.050992366412214274,-0.09251908396946565,0.14068702290076326
413,0.73828125,-0.698486328125,0.029541015625,-0.04335877862595483,-0.10015267175572519,0.2933587786259541
414,0.732177734375,-0.701171875,0.032470703125,0.14748091603053393,0.22045801526717557,0.11778625954198463
415,0.7373046875,-0.698974609375,0.037841796875,-0.050992366412214274,-0.13832061068702292,-0.20282442748091611
416,0.737548828125,-0.703369140625,0.039306640625,-0.07389312977099305,-0.21465648854961833,0.278091603053435
417,0.7373046875,-0.701416015625,0.037353515625,-0.11206106870229071,0.16702290076335877,0.08725190839694646
418,0.733642578125,-0.70263671875,0.03076171875,0.10931297709923626,-0.0467175572519084,-0.1570229007633589
419,0.736328125,-0.701171875,0.02880859375,-0.10442748091603082,-0.13832061068702292,-0.11122137404580162
420,0.7392578125,-0.699951171875,0.034912109375,0.16274809160305304,0.006717557251908397,0.018549618320610584
421,0.735107421875,-0.703125,0.0341796875,-0.050992366412214274,0.05251908396946565,0.04145038167938922
422,0.733642578125,-0.696044921875,0.031982421875,-0.050992366412214274,0.22045801526717557,-0.0501526717557253
423,0.73876953125,-0.69873046875,0.0361328125,0.11694656488549571,-0.19175572519083972,-0.11885496183206118
424,0.734375,-0.703369140625,0.030517578125,-0.11206106870229071,0.12122137404580152,0.04908396946564875
425,0.734375,-0.702392578125,0.03857421875,-0.2112977099236648,-0.06198473282442748,0.1483206106870228
426,0.7373046875,-0.70068359375,0.03271484375,0.02534351145038105,-0.14595419847328245,0.07198473282442738
427,0.7333984375,-0.703369140625,0.0380859375,-0.06625954198473316,-0.09251908396946565,-0.02725190839694669
428,0.73583984375,-0.69970703125,0.03466796875,0.14748091603053393,0.28152671755725195,0.03381679389312969
429,0.734375,-0.70361328125,0.026611328125,-0.08916030534351194,0.15175572519083969,-0.24099236641221383
430,0.73486328125,-0.7021484375,0.033203125,-0.2112977099236648,-0.07725190839694657,0.14068702290076326
431,0.73486328125,-0.69482421875,0.036376953125,0.14748091603053393,0.25099236641221373,0.018549618320610584
432,0.7333984375,-0.700439453125,0.02783203125,0.12458015267175515,0.08305343511450382,0.08725190839694646
433,0.73681640625,-0.6982421875,0.029296875,-0.31816793893129836,-0.07725190839694657,0.11778625954198463
434,0.736328125,-0.69970703125,0.03564453125,0.048244274809159826,0.0983206106870229,-0.04251908396946574
435,0.734130859375,-0.70263671875,0.030517578125,-0.1731297709923667,0.029618320610687022,0.1864885496183205
436,0.732666015625,-0.7021484375,0.03955078125,0.0711450381679386,0.2586259541984733,-0.0730534351145039
437,0.73193359375,-0.703857421875,0.03564453125,0.2848854961832057,0.1899236641221374,0.11778625954198463
438,0.737060546875,-0.701171875,0.035888671875,0.13984732824427426,0.02198473282442748,0.2017557251908396
439,0.734619140625,-0.705810546875,0.03564453125,0.13221374045801482,0.10595419847328244,0.010916030534351029
440,0.739501953125,-0.703125,0.02978515625,0.048244274809159826,0.12122137404580152,0.010916030534351029
441,0.735107421875,-0.7021484375,0.035400390625,-0.10442748091603082,0.05251908396946565,0.06435114503816783
442,0.735595703125,-0.703857421875,0.028564453125,-0.012824427480916611,-0.2680916030534351,0.23229007633587775
443,0.7294921875,-0.69775390625,0.027099609375,-0.04335877862595483,-0.3138931297709924,-0.2944274809160306
444,0.741455078125,-0.69970703125,0.034423828125,-0.14259541984732893,-0.0467175572519084,0.2399236641221373
445,0.732666015625,-0.70263671875,0.030517578125,-0.1807633587786266,-0.07725190839694657,-0.0730534351145039
446,0.730712890625,-0.705810546875,0.034423828125,-0.18839694656488604,-0.039083969465648856,0.003282442748091474
447,0.73095703125,-0.703857421875,0.035400390625,0.06351145038167871,0.10595419847328244,-0.17229007633587795
448,0.732177734375,-0.69873046875,0.032470703125,0.0711450381679386,0.0983206106870229,0.1101526717557251
449,0.73583984375,-0.700439453125,0.036865234375,0.5062595419847324,-0.06198473282442748,0.1483206106870228
450,0.7353515625,-0.69775390625,0.03466796875,-0.0280916030534355,0.1899236641221374,0.018549618320610584
451,0.73486328125,-0.70263671875,0.03515625,-0.05862595419847372,-0.01618320610687023,0.10251908396946555
452,0.733642578125,-0.70166015625,0.033935546875,0.14748091603053393,0.006717557251908397,0.10251908396946555
453,0.738037109375,-0.701904296875,0.038330078125,-0.03572519083969494,0.06778625954198474,0.0567175572519083
454,0.734619140625,-0.69921875,0.031494140625,0.04061068702290038,0.1746564885496183,-0.22572519083969472
455,0.73388671875,-0.70166015625,0.037841796875,-0.2265648854961837,0.06015267175572519,-0.17229007633587795
456,0.73291015625,-0.70263671875,0.037841796875,-0.012824427480916611,-0.34442748091603054,-0.18755725190839706
457,0.73388671875,-0.70263671875,0.033447265625,-0.1807633587786266,0.06778625954198474,0.07961832061068691
458,0.732666015625,-0.70068359375,0.03466796875,0.0711450381679386,0.037251908396946566,-0.11122137404580162
459,0.7353515625,-0.702880859375,0.0341796875,0.3459541984732819,-0.32916030534351143,0.0567175572519083
460,0.7314453125,-0.70263671875,0.0283203125,0.10931297709923626,-0.0009160305343511452,-0.08832061068702302
461,0.733154296875,-0.70361328125,0.031005859375,-0.10442748091603082,-0.031450381679389315,-0.01198473282442758
462,0.73876953125,-0.69970703125,0.029541015625,-0.16549618320610726,-0.22229007633587788,-0.12648854961832073
463,0.737548828125,-0.69873046875,0.0322265625,0.0711450381679386,0.014351145038167938,-0.08832061068702302
464,0.735595703125,-0.701171875,0.0322265625,-0.06625954198473316,0.15175572519083969,-0.14938931297709934
465,0.7392578125,-0.705322265625,0.036865234375,-0.2418320610687026,-0.07725190839694657,0.10251908396946555
466,0.73291015625,-0.701171875,0.028076171875,-0.14259541984732893,-0.26045801526717555,-0.2791603053435116
467,0.73046875,-0.702880859375,0.02490234375,-0.2418320610687026,0.07541984732824428,0.003282442748091474
468,0.73291015625,-0.70263671875,0.041015625,-0.356335877862596,0.037251908396946566,-0.019618320610687134
469,0.7333984375,-0.7060546875,0.03662109375,-0.16549618320610726,-0.01618320610687023,0.010916030534351029
470,0.732666015625,-0.70166015625,0.0302734375,0.08641221374045749,0.15175572519083969,0.07198473282442738
471,0.735107421875,-0.697021484375,0.033203125,0.14748091603053393,0.06778625954198474,0.15595419847328235
472,0.74072265625,-0.701171875,0.035888671875,0.22381679389312925,0.14412213740458013,0.08725190839694646
473,0.731201171875,-0.70556640625,0.037841796875,-0.06625954198473316,-0.18412213740458017,0.0567175572519083
474,0.736328125,-0.702880859375,0.0302734375,0.010076335877862164,-0.11541984732824427,0.23229007633587775
475,0.734619140625,-0.700927734375,0.034423828125,-0.05862595419847372,0.18229007633587785,-0.01198473282442758
476,0.734619140625,-0.69775390625,0.029541015625,-0.18839694656488604,0.2738931297709924,0.018549618320610584
477,0.73486328125,-0.703125,0.0283203125,-0.15786259541984782,-0.10778625954198473,-0.12648854961832073
478,0.733154296875,-0.703125,0.030029296875,0.06351145038167871,-0.2451908396946565,-0.06541984732824435
479,0.734619140625,-0.697265625,0.032470703125,0.03297709923664094,-0.08488549618320611,-0.04251908396946574
480,0.733154296875,-0.697265625,0.03369140625,-0.020458015267176055,-0.16885496183206108,-0.08832061068702302
481,0.7333984375,-0.700439453125,0.02783203125,-0.1731297709923667,-0.06198473282442748,0.003282442748091474
482,0.734130859375,-0.705322265625,0.036376953125,-0.0280916030534355,-0.13832061068702292,-0.11885496183206118
483,0.73193359375,-0.70068359375,0.03662109375,0.04061068702290038,-0.031450381679389315,0.03381679389312969
484,0.731201171875,-0.7001953125,0.03564453125,0.010076335877862164,0.05251908396946565,-0.0501526717557253
485,0.73193359375,-0.697509765625,0.0361328125,0.017709923664121607,-0.05435114503816794,0.12541984732824418
486,0.730712890625,-0.700439453125,0.03076171875,-0.16549618320610726,-0.1764885496183206,0.04908396946564875
487,0.7353515625,-0.7021484375,0.040283203125,0.010076335877862164,0.09068702290076336,-0.0730534351145039
488,0.732666015625,-0.700927734375,0.0341796875,-0.07389312977099305,0.20519083969465648,0.003282442748091474
489,0.732666015625,-0.69921875,0.036865234375,0.06351145038167871,0.04488549618320611,-0.10358778625954207
490,0.734619140625,-0.70263671875,0.02880859375,-0.07389312977099305,-0.22229007633587788,-0.1417557251908398
491,0.73291015625,-0.695068359375,0.030517578125,-0.03572519083969494,-0.12305343511450381,-0.14938931297709934
492,0.737060546875,-0.70068359375,0.021728515625,0.04061068702290038,0.12885496183206105,-0.05778625954198485
493,0.73291015625,-0.701416015625,0.029296875,0.08641221374045749,-0.1764885496183206,0.04908396946564875
494,0.733642578125,-0.70556640625,0.03759765625,-0.05862595419847372,0.04488549618320611,-0.1570229007633589
495,0.732666015625,-0.70263671875,0.037353515625,-0.06625954198473316,0.12122137404580152,0.07961832061068691
496,0.73828125,-0.702880859375,0.03515625,0.2009160305343507,-0.13068702290076337,0.22465648854961823
497,0.735107421875,-0.70263671875,0.03369140625,-0.1731297709923667,0.10595419847328244,0.010916030534351029
498,0.73486328125,-0.70361328125,0.03125,0.12458015267175515,0.08305343511450382,-0.03488549618320619
499,0.734619140625,-0.700927734375,0.035888671875,-0.19603053435114548,0.037251908396946566,-0.13412213740458023
500,0.734375,-0.7021484375,0.0361328125,-0.18839694656488604,0.15175572519083969,-0.11885496183206118
501,0.7333984375,-0.706787109375,0.046630859375,-0.21893129770992426,-0.34442748091603054,0.30862595419847316
502,0.723388671875,-0.72021484375,0.022216796875,-0.2952671755725196,0.12122137404580152,-0.004351145038168025
503,0.737548828125,-0.710205078125,0.05419921875,0.17038167938931248,0.05251908396946565,0.06435114503816783
504,0.715576171875,-0.7236328125,0.01708984375,-0.14259541984732893,-0.27572519083969466,0.15595419847328235
505,0.724853515625,-0.71875,0.01220703125,-0.07389312977099305,-0.039083969465648856,-0.02725190839694669
506,0.741943359375,-0.69384765625,0.040771484375,-0.05862595419847372,0.1746564885496183,-0.24099236641221383
507,0.739013671875,-0.721923828125,0.015380859375,-0.005190839694657168,0.05251908396946565,-0.004351145038168025
508,0.721435546875,-0.705810546875,0.026123046875,0.10167938931297682,-0.10015267175572519,-0.1646564885496184
509,0.733154296875,-0.69677734375,0.035888671875,-0.2570992366412219,-0.2299236641221374,-0.10358778625954207
510,0.74072265625,-0.7001953125,0.02197265625,0.13984732824427426,0.06015267175572519,-0.03488549618320619
511,0.73193359375,-0.7138671875,0.064208984375,0.42229007633587745,-0.01618320610687023,0.06435114503816783
512,0.733642578125,-0.610595703125,-0.21923828125,-21.150229007633587,-23.1993893129771,0.23229007633587775
513,0.7548828125,-0.64990234375,-0.043701171875,-9.379236641221375,-9.970381679389313,-0.28679389312977105
514,0.684326171875,-0.803466796875,-0.075927734375,-15.058625954198476,-16.52,-0.02725190839694669
515,0.69140625,-0.7880859375,-0.059814453125,-11.45557251908397,-11.237557251908395,-0.4776335877862597
516,0.737060546875,-0.687744140625,-0.04443359375,-14.020458015267177,-13.665038167938931,-0.821145038167939
517,0.7255859375,-0.701171875,-0.033203125,-13.073893129770994,-12.443664122137404,-0.8364122137404582
518,0.73583984375,-0.73291015625,-0.057373046875,-15.394503816793893,-15.33679389312977,-0.7829770992366414
519,0.735595703125,-0.601318359375,-0.195068359375,-12.64641221374046,-10.298625954198473,-1.4776335877862596
520,0.79736328125,-0.587646484375,-0.023681640625,-12.684580152671757,-12.626870229007633,-0.5463358778625955
521,0.74755859375,-0.649169921875,-0.1513671875,-13.11206106870229,-15.107786259541983,0.02618320610687014
522,0.711669921875,-0.767333984375,-0.117431640625,-12.79908396946565,-13.978015267175572,0.2017557251908396
523,0.708740234375,-0.7451171875,-0.15966796875,-14.165496183206109,-15.34442748091603,0.10251908396946555
524,0.701171875,-0.712890625,-0.18798828125,-13.814351145038168,-14.443664122137404,-0.08068702290076346
525,0.684326171875,-0.73779296875,-0.234375,-14.501374045801526,-15.726106870229007,0.04145038167938922
526,0.6650390625,-0.77880859375,-0.288818359375,-13.669312977099237,-14.00091603053435,0.0567175572519083
527,0.683349609375,-0.724365234375,-0.23828125,-13.501374045801528,-12.634503816793892,-0.4394656488549619
528,0.68408203125,-0.68505859375,-0.25537109375,-15.035725190839695,-14.153587786259541,-0.8440458015267178
529,0.703857421875,-0.644287109375,-0.29638671875,-14.638778625954199,-14.596335877862595,-0.6532061068702291
530,0.67138671875,-0.6875,-0.34716796875,-14.3181679389313,-14.436030534351143,-0.5310687022900764
531,0.6943359375,-0.6357421875,-0.33935546875,-13.95175572519084,-13.222290076335877,-0.6837404580152673
532,0.68505859375,-0.6435546875,-0.332763671875,-14.13496183206107,-13.535267175572518,-0.7677099236641223
533,0.693359375,-0.626220703125,-0.34130859375,-13.692213740458016,-13.65740458015267,-0.004351145038168025
534,0.67578125,-0.636962890625,-0.39208984375,-14.302900763358778,-14.474198473282442,-0.4929007633587787
535,0.687255859375,-0.6064453125,-0.396484375,-14.196030534351145,-13.771908396946564,-0.5845038167938932
536,0.673583984375,-0.58349609375,-0.410400390625,-14.005190839694656,-13.184122137404579,-0.6990076335877864
537,0.6708984375,-0.606689453125,-0.400390625,-13.29526717557252,-13.733740458015266,-0.63793893129771
538,0.66162109375,-0.5908203125,-0.512451171875,-13.905954198473282,-14.33679389312977,-0.17229007633587795
539,0.6484375,-0.627197265625,-0.4384765625,-12.967022900763359,-12.916946564885496,-0.5005343511450382
540,0.650634765625,-0.5830078125,-0.46044921875,-14.715114503816796,-14.535267175572518,-0.6990076335877864
541,0.657470703125,-0.564453125,-0.4873046875,-14.3181679389313,-14.634503816793892,-0.5616030534351146
542,0.623779296875,-0.59814453125,-0.54541015625,-14.417404580152674,-14.634503816793892,-0.4776335877862597
543,0.616943359375,-0.59619140625,-0.544677734375,-14.31053435114504,-14.1612213740458,-0.4623664122137406
544,0.62646484375,-0.5517578125,-0.540771484375,-13.921221374045803,-14.031450381679388,-0.5692366412213741
545,0.619384765625,-0.5537109375,-0.544677734375,-14.073893129770994,-14.535267175572518,-0.04251908396946574
546,0.587890625,-0.57568359375,-0.58642578125,-14.050992366412213,-14.214656488549618,-0.5997709923664123
547,0.587158203125,-0.559814453125,-0.592529296875,-13.921221374045803,-13.83297709923664,-0.47000000000000014
548,0.600341796875,-0.5009765625,-0.600830078125,-13.585343511450382,-13.581068702290075,-0.6761068702290078
549,0.59033203125,-0.51171875,-0.604248046875,-13.180763358778627,-13.611603053435113,-0.34022900763358793
550,0.578369140625,-0.533203125,-0.6171875,-13.959389312977102,-14.222290076335877,-0.12648854961832073
551,0.57666015625,-0.506591796875,-0.63427734375,-13.989923664122138,-13.756641221374045,-0.7906106870229008
552,0.573486328125,-0.455322265625,-0.65185546875,-14.402137404580152,-13.665038167938931,-0.9509160305343514
553,0.572509765625,-0.4580078125,-0.63134765625,-13.921221374045803,-13.993282442748091,-0.4089312977099238
554,0.533447265625,-0.482177734375,-0.70263671875,-13.715114503816794,-13.779541984732823,-0.37076335877862604
555,0.534912109375,-0.453369140625,-0.6875,-13.844885496183206,-13.924580152671755,-0.5845038167938932
556,0.552734375,-0.418701171875,-0.674072265625,-14.272366412213742,-13.855877862595419,-0.4470992366412215
557,0.478271484375,-0.47216796875,-0.908447265625,-15.738015267175573,-15.550534351145037,-0.3631297709923665
558,0.5078125,-0.449462890625,-0.717529296875,-12.28763358778626,-11.642137404580152,-0.6226717557251908
559,0.46826171875,-0.44677734375,-0.7158203125,-14.654045801526717,-14.039083969465649,-0.6990076335877864
560,0.4814453125,-0.385986328125,-0.73681640625,-14.13496183206107,-13.909312977099235,-0.6837404580152673
561,0.493896484375,-0.3720703125,-0.77587890625,-14.883053435114505,-15.115419847328244,-0.6532061068702291
562,0.461669921875,-0.391845703125,-0.8251953125,-13.875419847328246,-14.275725190839694,-0.5005343511450382
563,0.431396484375,-0.401611328125,-0.787109375,-13.760916030534352,-13.184122137404579,-0.5081679389312979
564,0.443115234375,-0.36083984375,-0.7978515625,-14.035725190839695,-13.978015267175572,-0.3478625954198474
565,0.43115234375,-0.356201171875,-0.8310546875,-13.447938931297712,-13.695572519083969,-0.45473282442748103
566,0.432373046875,-0.34814453125,-0.8134765625,-13.12732824427481,-13.039083969465649,-0.3783969465648856
567,0.406982421875,-0.349853515625,-0.81201171875,-14.005190839694656,-13.932213740458014,-0.8516793893129773
568,0.39453125,-0.314208984375,-0.83447265625,-14.218931297709926,-14.145954198473282,-0.34022900763358793
569,0.377685546875,-0.33056640625,-0.83935546875,-13.745648854961834,-14.252824427480915,-0.6684732824427482
570,0.37158203125,-0.32275390625,-0.838134765625,-14.226564885496185,-14.558167938931296,-0.38603053435114515
571,0.361083984375,-0.33349609375,-0.86669921875,-14.089160305343512,-14.115419847328244,-0.4394656488549619
572,0.356201171875,-0.265625,-0.861328125,-14.050992366412213,-14.413129770992365,-0.5463358778625955
573,0.361328125,-0.243896484375,-0.863525390625,-14.356335877862595,-14.626870229007633,-0.523435114503817
574,0.335693359375,-0.267822265625,-0.90234375,-14.379236641221375,-14.649770992366411,-0.6455725190839696
575,0.3056640625,-0.26708984375,-0.917724609375,-14.203664122137404,-13.98564885496183,-0.6303053435114505
576,0.2998046875,-0.2392578125,-1.04248046875,-17.341068702290077,-18.35969465648855,-0.28679389312977105
577,0.288818359375,-0.2412109375,-0.943359375,-11.142595419847328,-10.855877862595419,0.14068702290076326
578,0.271484375,-0.250732421875,-0.906005859375,-14.94412213740458,-15.145954198473282,-0.19519083969465661
579,0.249267578125,-0.21533203125,-0.95654296875,-13.760916030534352,-13.8406106870229,-0.821145038167939
580,0.275146484375,-0.155029296875,-0.9326171875,-13.82198473282443,-13.321526717557251,-0.9356488549618323
581,0.240234375,-0.170166015625,-0.91455078125,-13.46320610687023,-13.451297709923663,-0.63793893129771
582,0.234619140625,-0.180908203125,-0.921142578125,-13.890687022900764,-13.764274809160305,-0.607404580152672
583,0.228271484375,-0.126953125,-0.9619140625,-14.425038167938933,-14.451297709923663,-1.0959541984732826
584,0.203125,-0.116455078125,-0.9365234375,-13.661679389312978,-13.35206106870229,-0.9356488549618323
585,0.2314453125,-0.05517578125,-0.922119140625,-13.79145038167939,-13.86351145038168,-0.4089312977099238
586,0.182373046875,-0.1201171875,-0.91650390625,-14.020458015267177,-14.092519083969465,-0.6226717557251908
587,0.17529296875,-0.079833984375,-0.97705078125,-14.890687022900764,-14.550534351145037,-0.5845038167938932
588,0.161376953125,-0.0634765625,-0.95263671875,-14.432671755725192,-14.306259541984732,-0.5081679389312979
589,0.142822265625,-0.0498046875,-0.96533203125,-14.524274809160307,-14.535267175572518,-0.6150381679389314
590,0.121337890625,-0.055908203125,-0.985595703125,-14.211297709923667,-14.023816793893129,-0.4089312977099238
591,0.108642578125,-0.0380859375,-0.96435546875,-14.363969465648857,-14.35206106870229,-0.9280152671755726
592,0.104736328125,-0.00146484375,-0.9736328125,-14.844885496183206,-14.68030534351145,-0.9738167938931299
593,0.09716796875,-0.0107421875,-0.996826171875,-14.035725190839695,-14.260458015267174,-0.4776335877862597
594,0.071044921875,-0.052978515625,-0.887451171875,-12.890687022900764,-13.916946564885496,-0.34022900763358793
595,0.051513671875,0.0146484375,-0.9228515625,-16.722748091603055,-17.313893129770992,-0.5616030534351146
596,0.049560546875,0.050537109375,-1.068359375,-14.455572519083969,-14.817709923664122,-0.4623664122137406
597,0.025146484375,0.006591796875,-0.968017578125,-12.47847328244275,-12.184122137404579,-0.2638931297709925
598,0.02880859375,0.04638671875,-0.93798828125,-14.760916030534354,-14.596335877862595,-0.5081679389312979
599,0.013916015625,0.083740234375,-0.97802734375,-13.982290076335879,-13.718473282442748,-0.9814503816793894
600,0.005615234375,0.095703125,-0.955078125,-13.745648854961834,-13.718473282442748,-0.8669465648854964
601,-0.006103515625,0.086181640625,-0.939697265625,-14.028091603053436,-14.184122137404579,-0.43183206106870237
602,-0.019287109375,0.0869140625,-0.9638671875,-14.79145038167939,-14.512366412213739,-0.5845038167938932
603,-0.041259765625,0.12939453125,-0.946533203125,-14.852519083969465,-14.512366412213739,-0.7677099236641223
604,-0.054931640625,0.140869140625,-0.957275390625,-14.486106870229008,-14.290992366412214,-0.27152671755725205
605,-0.072509765625,0.1376953125,-0.97998046875,-14.44793893129771,-14.237557251908395,-0.5845038167938932
606,-0.075439453125,0.1650390625,-0.95263671875,-14.371603053435116,-14.023816793893129,-0.8287786259541987
607,-0.081298828125,0.184814453125,-0.953125,-14.699847328244275,-14.779541984732823,-0.5387022900763361
608,-0.0986328125,0.191162109375,-0.961181640625,-14.241832061068703,-14.581068702290075,-0.40129770992366426
609,-0.119873046875,0.194091796875,-0.95361328125,-14.066259541984735,-14.107786259541983,-0.2944274809160306
610,-0.138427734375,0.17138671875,-0.968994140625,-13.80671755725191,-13.687938931297708,-0.7066412213740458
611,-0.151123046875,0.23828125,-0.90478515625,-14.173129770992368,-14.34442748091603,-0.48526717557251914
612,-0.156005859375,0.239501953125,-0.934814453125,-14.799083969465649,-14.962748091603052,-0.7066412213740458
613,-0.156494140625,0.26123046875,-0.815185546875,-11.44030534351145,-11.16885496183206,-0.7295419847328246
614,-0.183837890625,0.25439453125,-0.797119140625,-16.547175572519084,-16.565801526717557,-0.31732824427480927
615,-0.187255859375,0.309326171875,-0.988525390625,-14.570076335877864,-14.626870229007633,-0.9432824427480917
616,-0.1962890625,0.307373046875,-0.866943359375,-13.058625954198474,-12.52,-0.4470992366412215
617,-0.223876953125,0.27587890625,-0.853515625,-14.509007633587789,-14.771908396946564,-0.63793893129771
618,-0.22412109375,0.335693359375,-0.91259765625,-14.63114503816794,-14.49709923664122,-0.9280152671755726
619,-0.238037109375,0.344482421875,-0.861572265625,-13.188396946564886,-13.199389312977098,-0.8974809160305346
620,-0.26025390625,0.3291015625,-0.826904296875,-14.562442748091605,-14.871145038167938,-0.6990076335877864
621,-0.259521484375,0.354736328125,-0.85888671875,-15.196030534351145,-15.069618320610687,-1.0883206106870231
622,-0.279296875,0.37158203125,-0.87744140625,-14.623511450381681,-14.382595419847327,-0.6608396946564887
623,-0.301025390625,0.372314453125,-0.86181640625,-13.867786259541985,-13.619236641221374,-0.9738167938931299
624,-0.2998046875,0.372314453125,-0.83154296875,-14.386870229007634,-14.031450381679388,-0.7677099236641223
625,-0.316162109375,0.400146484375,-0.83203125,-14.852519083969465,-14.481832061068701,-0.5997709923664123
626,-0.327392578125,0.416015625,-0.850830078125,-14.196030534351145,-14.306259541984732,-0.7753435114503819
627,-0.34130859375,0.42431640625,-0.81689453125,-13.913587786259544,-13.916946564885496,-0.9738167938931299
628,-0.3525390625,0.41357421875,-0.796875,-14.218931297709926,-14.00091603053435,-0.7066412213740458
629,-0.351806640625,0.44873046875,-0.796875,-14.31053435114504,-14.428396946564884,-0.5997709923664123
630,-0.381591796875,0.4345703125,-0.7841796875,-13.562442748091604,-13.83297709923664,-0.6303053435114505
631,-0.38720703125,0.46435546875,-0.760009765625,-13.982290076335879,-13.756641221374045,-0.7829770992366414
632,-0.401123046875,0.459228515625,-0.787109375,-13.234198473282444,-12.718473282442748,-0.47000000000000014
633,-0.3955078125,0.471435546875,-0.667236328125,-13.554809160305345,-13.756641221374045,-0.7448091603053437
634,-0.398193359375,0.49365234375,-0.69287109375,-14.928854961832062,-15.138320610687021,-0.9585496183206108
635,-0.43359375,0.519775390625,-0.7666015625,-15.005190839694656,-14.466564885496183,-0.8822137404580155
636,-0.424072265625,0.513916015625,-0.6884765625,-14.10442748091603,-13.581068702290075,-0.989083969465649
637,-0.432861328125,0.518798828125,-0.677001953125,-14.669312977099239,-14.443664122137404,-0.7066412213740458
638,-0.454833984375,0.53369140625,-0.704833984375,-14.898320610687023,-14.726106870229007,-0.8516793893129773
639,-0.47265625,0.53076171875,-0.6748046875,-14.272366412213742,-14.733740458015266,-0.9509160305343514
640,-0.467529296875,0.5498046875,-0.676025390625,-14.119694656488551,-14.039083969465649,-0.6303053435114505
641,-0.478515625,0.544189453125,-0.646240234375,-14.196030534351145,-14.405496183206106,-0.63793893129771
642,-0.493896484375,0.561767578125,-0.6328125,-14.188396946564886,-13.886412213740456,-0.28679389312977105
643,-0.504150390625,0.571044921875,-0.613525390625,-14.112061068702292,-14.023816793893129,-0.7448091603053437
644,-0.508544921875,0.564208984375,-0.605712890625,-14.47083969465649,-14.626870229007633,-0.607404580152672
645,-0.523193359375,0.58349609375,-0.603759765625,-13.921221374045803,-13.611603053435113,-0.6532061068702291
646,-0.53125,0.595703125,-0.561279296875,-14.386870229007634,-14.184122137404579,-0.5387022900763361
647,-0.539794921875,0.601318359375,-0.552001953125,-14.203664122137404,-14.115419847328244,-0.8669465648854964
648,-0.54345703125,0.6142578125,-0.5185546875,-14.081526717557253,-13.978015267175572,-0.7829770992366414
649,-0.541748046875,0.6015625,-0.493896484375,-14.44793893129771,-14.16885496183206,-0.7448091603053437
650,-0.5498046875,0.621337890625,-0.490234375,-14.96702290076336,-14.50473282442748,-0.607404580152672
651,-0.561279296875,0.653564453125,-0.5537109375,-15.150229007633587,-14.962748091603052,-0.5616030534351146
652,-0.56787109375,0.640380859375,-0.4755859375,-13.562442748091604,-13.061984732824426,-1.0654198473282444
653,-0.57080078125,0.657470703125,-0.428466796875,-14.44030534351145,-14.367328244274809,-0.737175572519084
654,-0.590087890625,0.65478515625,-0.430908203125,-15.073893129770994,-15.054351145038167,-0.7829770992366414
655,-0.587890625,0.655029296875,-0.414794921875,-14.730381679389314,-14.581068702290075,-0.9585496183206108
656,-0.59912109375,0.653564453125,-0.40966796875,-14.394503816793893,-14.787175572519082,-0.9661832061068705
657,-0.599609375,0.661865234375,-0.380615234375,-14.615877862595422,-14.474198473282442,-0.721908396946565
658,-0.59814453125,0.66650390625,-0.36572265625,-14.264732824427483,-14.260458015267174,-0.7142748091603055
659,-0.611083984375,0.68310546875,-0.3447265625,-14.692213740458016,-14.749007633587786,-0.7295419847328246
660,-0.615234375,0.694091796875,-0.336181640625,-14.44030534351145,-14.474198473282442,-0.9509160305343514
661,-0.626708984375,0.688720703125,-0.322265625,-14.707480916030534,-14.420763358778625,-0.8669465648854964
662,-0.627197265625,0.693359375,-0.284912109375,-14.623511450381681,-14.68030534351145,-0.821145038167939
663,-0.634521484375,0.69970703125,-0.287353515625,-14.547175572519084,-14.558167938931296,-1.0883206106870231
664,-0.63037109375,0.700439453125,-0.229248046875,-14.203664122137404,-14.252824427480915,-0.6990076335877864
665,-0.6416015625,0.689208984375,-0.213623046875,-14.432671755725192,-14.199389312977098,-0.8974809160305346
666,-0.646484375,0.696044921875,-0.20654296875,-14.081526717557253,-13.82534351145038,-0.989083969465649
667,-0.650634765625,0.6962890625,-0.169921875,-14.776183206106872,-14.634503816793892,-0.8135114503816796
668,-0.64453125,0.707763671875,-0.150390625,-14.852519083969465,-14.817709923664122,-0.9356488549618323
669,-0.65966796875,0.7109375,-0.153076171875,-14.898320610687023,-15.046717557251908,-0.6837404580152673
670,-0.653076171875,0.7314453125,-0.14453125,-17.24946564885496,-17.35206106870229,-1.6303053435114505
671,-0.664794921875,0.728759765625,-0.1533203125,-14.585343511450382,-14.558167938931296,-0.6226717557251908
672,-0.65625,0.73681640625,-0.1103515625,-14.570076335877864,-14.420763358778625,-1.1341221374045802
673,-0.65234375,0.733154296875,-0.08544921875,-14.516641221374048,-14.290992366412214,-0.8898473282442749
674,-0.66162109375,0.716552734375,-0.065673828125,-14.592977099236641,-14.374961832061068,-1.057786259541985
675,-0.67236328125,0.713134765625,-0.0546875,-14.623511450381681,-14.428396946564884,-1.1112213740458017
676,-0.66796875,0.717529296875,-0.019287109375,-14.425038167938933,-14.298625954198473,-0.7906106870229008
677,-0.671630859375,0.717041015625,-0.010986328125,-14.615877862595422,-14.67267175572519,-0.8593129770992367
678,-0.690185546875,0.7197265625,-0.005859375,-14.81435114503817,-14.550534351145037,-0.821145038167939
679,-0.677734375,0.71875,0.031494140625,-14.402137404580152,-14.1612213740458,-0.8669465648854964
680,-0.66552734375,0.722900390625,0.0712890625,-14.684580152671757,-14.474198473282442,-0.989083969465649
681,-0.66943359375,0.724365234375,0.078857421875,-14.44030534351145,-14.184122137404579,-1.0425190839694658
682,-0.685302734375,0.71337890625,0.100341796875,-14.341068702290077,-14.32916030534351,-0.6684732824427482
683,-0.67578125,0.7080078125,0.12060546875,-14.531908396946566,-14.451297709923663,-1.0272519083969467
684,-0.676513671875,0.715576171875,0.146484375,-14.554809160305343,-14.321526717557251,-0.9280152671755726
685,-0.67578125,0.701904296875,0.1455078125,-14.638778625954199,-14.443664122137404,-0.6150381679389314
686,-0.66845703125,0.7099609375,0.161376953125,-14.936488549618321,-14.626870229007633,-0.6608396946564887
687,-0.669189453125,0.718505859375,0.18603515625,-14.852519083969465,-14.703206106870228,-0.905114503816794
688,-0.6689453125,0.71142578125,0.200439453125,-13.989923664122138,-14.01618320610687,-1.0425190839694658
689,-0.660400390625,0.693115234375,0.249755859375,-15.669312977099239,-15.649770992366411,-0.8593129770992367
690,-0.67919921875,0.689453125,0.20751953125,-14.455572519083969,-14.550534351145037,-0.8058778625954199
691,-0.673583984375,0.699462890625,0.250732421875,-13.738015267175573,-13.565801526717557,-0.8898473282442749
692,-0.655029296875,0.701171875,0.2919921875,-14.073893129770994,-13.756641221374045,-1.1112213740458017
693,-0.656494140625,0.677001953125,0.3046875,-14.211297709923667,-14.382595419847327,-0.721908396946565
694,-0.670654296875,0.66845703125,0.306640625,-14.333435114503818,-14.397862595419847,-0.7677099236641223
695,-0.64599609375,0.691162109375,0.335205078125,-14.12732824427481,-13.878778625954197,-0.9661832061068705
696,-0.645751953125,0.680419921875,0.3671875,-14.44030534351145,-14.49709923664122,-1.0348854961832064
697,-0.637939453125,0.670166015625,0.38330078125,-14.043358778625954,-14.115419847328244,-0.8058778625954199
698,-0.64453125,0.663330078125,0.4208984375,-14.425038167938933,-14.52,-0.8516793893129773
699,-0.6357421875,0.650634765625,0.439697265625,-14.684580152671757,-14.886412213740456,-1.0272519083969467
700,-0.62353515625,0.669189453125,0.433837890625,-14.539541984732825,-14.481832061068701,-0.8440458015267178
701,-0.630615234375,0.65234375,0.44970703125,-14.203664122137404,-14.49709923664122,-0.6226717557251908
702,-0.607421875,0.675537109375,0.45556640625,-14.562442748091605,-14.878778625954197,-0.8669465648854964
703,-0.60986328125,0.643798828125,0.46044921875,-14.669312977099239,-14.817709923664122,-0.8364122137404582
704,-0.6123046875,0.630126953125,0.496826171875,-14.654045801526717,-14.855877862595419,-0.9203816793893131
705,-0.59326171875,0.6455078125,0.500732421875,-14.547175572519084,-15.00854961832061,-0.6990076335877864
706,-0.60595703125,0.618408203125,0.506103515625,-14.341068702290077,-14.17648854961832,-0.7677099236641223
707,-0.59033203125,0.576416015625,0.601806640625,-13.539541984732825,-13.779541984732823,-0.8135114503816796
708,-0.57568359375,0.604736328125,0.607421875,-15.081526717557253,-14.810076335877861,-0.7295419847328246
709,-0.588134765625,0.6005859375,0.530517578125,-14.97465648854962,-15.229923664122136,-0.8593129770992367
710,-0.570556640625,0.592041015625,0.560302734375,-13.363969465648855,-13.061984732824426,-0.8898473282442749
711,-0.554443359375,0.594482421875,0.66015625,-13.82198473282443,-13.428396946564884,-0.9203816793893131
712,-0.538818359375,0.593994140625,0.6162109375,-15.615877862595422,-15.00091603053435,-0.8669465648854964
713,-0.538330078125,0.589111328125,0.63134765625,-14.150229007633587,-14.283358778625953,-0.6913740458015267
714,-0.531982421875,0.5478515625,0.69775390625,-14.12732824427481,-14.107786259541983,-1.0196183206106872
715,-0.52880859375,0.54931640625,0.700927734375,-14.776183206106872,-14.443664122137404,-1.0654198473282444
716,-0.524169921875,0.54541015625,0.673095703125,-14.692213740458016,-14.718473282442748,-0.9432824427480917
717,-0.525390625,0.530517578125,0.697998046875,-14.119694656488551,-14.023816793893129,-0.7448091603053437
718,-0.5078125,0.528564453125,0.69775390625,-14.722748091603055,-14.901679389312976,-0.8364122137404582
719,-0.504638671875,0.508544921875,0.698974609375,-14.379236641221375,-14.535267175572518,-0.8516793893129773
720,-0.49462890625,0.498046875,0.742431640625,-14.29526717557252,-14.733740458015266,-0.7829770992366414
721,-0.489013671875,0.491455078125,0.750244140625,-14.417404580152674,-14.82534351145038,-0.7066412213740458
722,-0.4638671875,0.496337890625,0.805419921875,-13.600610687022902,-13.49709923664122,-0.6608396946564887
723,-0.458251953125,0.47412109375,0.81396484375,-14.264732824427483,-14.512366412213739,-0.9738167938931299
724,-0.453369140625,0.46728515625,0.798583984375,-14.524274809160307,-14.703206106870228,-0.523435114503817
725,-0.45556640625,0.450439453125,0.7822265625,-13.890687022900764,-14.039083969465649,-1.1951908396946567
726,-0.448974609375,0.417724609375,0.789794921875,-12.82198473282443,-12.718473282442748,-1.3783969465648858
727,-0.4111328125,0.4306640625,0.8720703125,-12.883053435114505,-12.970381679389313,-1.0883206106870231
728,-0.399658203125,0.42822265625,0.88916015625,-14.31053435114504,-14.145954198473282,-1.0883206106870231
729,-0.413818359375,0.39404296875,0.8544921875,-14.81435114503817,-14.542900763358778,-0.8058778625954199
730,-0.399658203125,0.388916015625,0.85693359375,-14.669312977099239,-14.49709923664122,-0.989083969465649
731,-0.376708984375,0.39892578125,0.873779296875,-14.371603053435116,-14.00091603053435,-0.9280152671755726
732,-0.364501953125,0.3779296875,0.909423828125,-14.241832061068703,-13.924580152671755,-0.8745801526717558
733,-0.354248046875,0.380859375,0.895263671875,-14.837251908396947,-14.413129770992365,-0.6837404580152673
734,-0.352294921875,0.34619140625,0.9189453125,-14.050992366412213,-14.207022900763357,-1.057786259541985
735,-0.34228515625,0.345703125,0.909912109375,-14.264732824427483,-14.107786259541983,-0.821145038167939
736,-0.31494140625,0.331298828125,0.922119140625,-14.516641221374048,-15.107786259541983,-1.0272519083969467
737,-0.308349609375,0.34716796875,0.916748046875,-14.333435114503818,-14.35206106870229,-0.7829770992366414
738,-0.307861328125,0.30322265625,0.9384765625,-14.348702290076336,-14.542900763358778,-0.7829770992366414
739,-0.27734375,0.297119140625,0.943603515625,-14.096793893129771,-13.98564885496183,-0.9509160305343514
740,-0.281982421875,0.288330078125,0.960205078125,-14.386870229007634,-14.458931297709922,-0.9509160305343514
741,-0.271240234375,0.285888671875,0.960205078125,-13.570076335877863,-13.756641221374045,-0.821145038167939
742,-0.258056640625,0.24462890625,0.967041015625,-13.875419847328246,-14.00854961832061,-0.8058778625954199
743,-0.244140625,0.220458984375,0.98681640625,-13.417404580152672,-13.107786259541983,-0.7448091603053437
744,-0.21337890625,0.257568359375,1.0224609375,-13.63114503816794,-13.565801526717557,-1.225725190839695
745,-0.205078125,0.27978515625,1.00537109375,-13.760916030534352,-13.451297709923663,-0.7448091603053437
746,-0.218994140625,0.16796875,1.029541015625,-13.272366412213742,-13.771908396946564,-0.6837404580152673
747,-0.1826171875,0.17822265625,1.06005859375,-14.356335877862595,-14.130687022900762,-0.9203816793893131
748,-0.172607421875,0.197509765625,1.015380859375,-15.028091603053436,-15.268091603053435,-0.7982442748091605
749,-0.16357421875,0.169921875,1.018798828125,-13.913587786259544,-14.214656488549618,-0.6150381679389314
750,-0.166748046875,0.1416015625,1.017822265625,-13.577709923664123,-13.749007633587786,-0.737175572519084
751,-0.135009765625,0.129150390625,1.064208984375,-14.241832061068703,-13.8406106870229,-0.7829770992366414
752,-0.112548828125,0.142578125,1.02587890625,-14.707480916030534,-14.955114503816793,-1.057786259541985
753,-0.122802734375,0.108154296875,1.0126953125,-13.989923664122138,-14.33679389312977,-0.6608396946564887
754,-0.1220703125,0.09423828125,1.018310546875,-14.272366412213742,-14.52,-0.4929007633587787
755,-0.103515625,0.096923828125,1.02294921875,-14.249465648854962,-14.077251908396946,-0.8974809160305346
756,-0.0654296875,0.093017578125,1.037353515625,-13.524274809160307,-13.573435114503816,-0.9509160305343514
757,-0.06787109375,0.0556640625,1.0576171875,-13.486106870229008,-13.65740458015267,-0.7295419847328246
758,-0.066650390625,0.033447265625,1.039794921875,-13.776183206106872,-14.100152671755724,-0.8440458015267178
759,-0.037841796875,0.037109375,1.062744140625,-14.173129770992368,-13.718473282442748,-1.0043511450381681
760,-0.007080078125,0.036865234375,1.0654296875,-13.79908396946565,-14.00854961832061,-1.0654198473282444
761,-0.02685546875,0.023193359375,1.044921875,-13.486106870229008,-13.626870229007633,-0.43183206106870237
762,-0.005615234375,-0.01708984375,1.079345703125,-13.493740458015267,-13.695572519083969,-0.8822137404580155
763,0.035888671875,-0.028564453125,1.07373046875,-14.196030534351145,-15.01618320610687,-0.9738167938931299
764,0.0185546875,-0.05615234375,1.01318359375,-14.799083969465649,-15.16885496183206,-0.721908396946565
765,0.043701171875,-0.0224609375,1.048828125,-13.47847328244275,-13.359694656488548,-0.6303053435114505
766,0.03857421875,-0.076904296875,1.065673828125,-13.738015267175573,-13.84824427480916,-0.737175572519084
767,0.078857421875,-0.05859375,1.087890625,-13.921221374045803,-14.061984732824426,-0.8745801526717558
768,0.08154296875,-0.06689453125,1.050537109375,-14.165496183206109,-14.275725190839694,-0.9127480916030537
769,0.080078125,-0.10009765625,1.02294921875,-14.165496183206109,-14.374961832061068,-0.6150381679389314
770,0.09033203125,-0.120361328125,1.025146484375,-14.28763358778626,-14.367328244274809,-0.6761068702290078
771,0.120361328125,-0.138427734375,1.06103515625,-12.348702290076337,-12.611603053435113,-1.1264885496183208
772,0.136962890625,-0.1162109375,1.077392578125,-15.188396946564886,-15.527633587786259,-0.5081679389312979
773,0.11328125,-0.14599609375,0.974853515625,-13.379236641221375,-13.86351145038168,-0.6684732824427482
774,0.153076171875,-0.171875,1.0478515625,-12.692213740458016,-12.756641221374045,-0.7066412213740458
775,0.17822265625,-0.17138671875,1.06591796875,-14.089160305343512,-14.054351145038167,-0.7677099236641223
776,0.1962890625,-0.159912109375,1.035400390625,-14.29526717557252,-14.268091603053435,-0.8898473282442749
777,0.18798828125,-0.188720703125,1.03564453125,-13.577709923664123,-13.710839694656487,-0.7524427480916032
778,0.185546875,-0.2138671875,1.0224609375,-13.64641221374046,-13.909312977099235,-0.7524427480916032
779,0.233642578125,-0.22021484375,1.039306640625,-15.211297709923667,-15.084885496183205,-0.9509160305343514
780,0.2431640625,-0.21533203125,0.985107421875,-14.768549618320613,-14.436030534351143,-0.8058778625954199
781,0.230712890625,-0.256591796875,0.99365234375,-13.272366412213742,-13.886412213740456,-0.1799236641221375
782,0.246337890625,-0.260986328125,1.022216796875,-13.79908396946565,-13.718473282442748,-0.8287786259541987
783,0.277587890625,-0.249267578125,0.986328125,-15.928854961832062,-15.733740458015266,-0.7753435114503819
784,0.28076171875,-0.270751953125,0.936279296875,-13.82198473282443,-13.817709923664122,-0.6837404580152673
785,0.2841796875,-0.287841796875,0.968994140625,-13.44030534351145,-13.474198473282442,-0.5997709923664123
786,0.27001953125,-0.32421875,0.988525390625,-13.82198473282443,-13.512366412213739,-0.35549618320610693
787,0.312744140625,-0.31640625,0.953369140625,-14.654045801526717,-14.550534351145037,-0.7982442748091605
788,0.316650390625,-0.31591796875,0.939697265625,-14.188396946564886,-14.199389312977098,-0.607404580152672
789,0.33935546875,-0.339111328125,0.919921875,-13.447938931297712,-13.939847328244275,-0.6532061068702291
790,0.342041015625,-0.3740234375,0.937255859375,-13.196030534351147,-13.451297709923663,-0.6913740458015267
791,0.37109375,-0.361328125,0.936279296875,-14.234198473282444,-13.611603053435113,-0.8974809160305346
792,0.3779296875,-0.36767578125,0.92236328125,-13.44030534351145,-13.237557251908395,-0.4470992366412215
793,0.369140625,-0.3876953125,0.90283203125,-13.722748091603055,-13.970381679389313,-0.7600763358778628
794,0.39453125,-0.420166015625,0.897216796875,-13.890687022900764,-13.817709923664122,-0.43183206106870237
795,0.41162109375,-0.401123046875,0.8798828125,-13.760916030534352,-13.535267175572518,-0.8440458015267178
796,0.428955078125,-0.404052734375,0.885009765625,-13.890687022900764,-13.695572519083969,-0.7066412213740458
797,0.403564453125,-0.450927734375,0.873046875,-14.203664122137404,-14.100152671755724,-0.63793893129771
798,0.43701171875,-0.46044921875,0.849609375,-14.180763358778627,-14.039083969465649,-1.0119847328244276
799,0.456298828125,-0.431640625,0.8173828125,-14.44030534351145,-14.229923664122136,-0.8364122137404582
800,0.470947265625,-0.448486328125,0.819091796875,-13.860152671755726,-13.542900763358778,-0.6684732824427482
801,0.458740234375,-0.466064453125,0.8203125,-13.11206106870229,-13.229923664122136,-0.4929007633587787
802,0.47216796875,-0.5,0.802978515625,-14.883053435114505,-14.82534351145038,-0.8898473282442749
803,0.4931640625,-0.450439453125,0.766357421875,-13.860152671755726,-13.756641221374045,-0.8440458015267178
804,0.50927734375,-0.482177734375,0.7529296875,-13.425038167938933,-13.397862595419847,-1.0959541984732826
805,0.499755859375,-0.50341796875,0.76171875,-12.97465648854962,-13.298625954198473,-0.63793893129771
806,0.511474609375,-0.51806640625,0.780029296875,-13.837251908396947,-13.901679389312976,-0.721908396946565
807,0.531494140625,-0.510498046875,0.736328125,-14.081526717557253,-13.764274809160305,-0.5921374045801528
808,0.553955078125,-0.517333984375,0.7451171875,-13.80671755725191,-13.68030534351145,-0.9967175572519085
809,0.53955078125,-0.544677734375,0.72021484375,-13.46320610687023,-13.810076335877861,-0.5387022900763361
810,0.537353515625,-0.563232421875,0.703369140625,-13.501374045801528,-13.542900763358778,-0.7295419847328246
811,0.56201171875,-0.544921875,0.69775390625,-13.883053435114505,-13.787175572519082,-0.6608396946564887
812,0.575439453125,-0.551025390625,0.685546875,-13.837251908396947,-14.092519083969465,-0.737175572519084
813,0.58251953125,-0.578125,0.652587890625,-13.989923664122138,-14.214656488549618,-0.5845038167938932
814,0.584228515625,-0.58056640625,0.63232421875,-14.020458015267177,-14.542900763358778,-0.7600763358778628
815,0.590087890625,-0.587646484375,0.627197265625,-14.066259541984735,-13.756641221374045,-0.6837404580152673
816,0.616455078125,-0.564453125,0.617431640625,-13.844885496183206,-14.023816793893129,-0.6761068702290078
817,0.594482421875,-0.607666015625,0.601318359375,-13.875419847328246,-14.313893129770992,-0.4394656488549619
818,0.595703125,-0.629150390625,0.585205078125,-13.363969465648855,-13.359694656488548,-0.6226717557251908
819,0.62939453125,-0.6064453125,0.562255859375,-13.45557251908397,-13.405496183206106,-0.989083969465649
820,0.63623046875,-0.6103515625,0.58935546875,-13.592977099236641,-14.023816793893129,-0.4929007633587787
821,0.639892578125,-0.60546875,0.542724609375,-13.94412213740458,-14.054351145038167,-0.7142748091603055
822,0.63623046875,-0.6220703125,0.50927734375,-13.79145038167939,-13.802442748091602,-0.8364122137404582
823,0.645263671875,-0.626953125,0.49755859375,-13.715114503816794,-13.83297709923664,-1.0119847328244276
824,0.664794921875,-0.629638671875,0.502685546875,-13.104427480916032,-13.252824427480915,-0.9127480916030537
825,0.665283203125,-0.641845703125,0.48828125,-13.028091603053436,-13.290992366412214,-0.7448091603053437
826,0.6669921875,-0.6552734375,0.4677734375,-13.249465648854963,-13.443664122137404,-0.6837404580152673
827,0.685546875,-0.641845703125,0.446533203125,-13.30290076335878,-13.481832061068701,-0.721908396946565
828,0.68896484375,-0.6435546875,0.429443359375,-13.47847328244275,-13.451297709923663,-0.8135114503816796
829,0.687744140625,-0.64794921875,0.4052734375,-13.730381679389314,-13.665038167938931,-0.8058778625954199
830,0.696044921875,-0.67529296875,0.39306640625,-13.852519083969467,-13.626870229007633,-0.4394656488549619
831,0.69775390625,-0.649169921875,0.359375,-13.97465648854962,-13.718473282442748,-0.8669465648854964
832,0.708984375,-0.658203125,0.356201171875,-14.493740458015267,-14.069618320610687,-0.7600763358778628
833,0.700927734375,-0.6630859375,0.321533203125,-14.050992366412213,-13.886412213740456,-0.5387022900763361
834,0.683349609375,-0.696533203125,0.326171875,-13.203664122137406,-13.573435114503816,-0.4929007633587787
835,0.700927734375,-0.6845703125,0.302001953125,-14.3181679389313,-14.19175572519084,-0.3936641221374047
836,0.713134765625,-0.66748046875,0.272216796875,-13.64641221374046,-13.703206106870228,-0.6837404580152673
837,0.706298828125,-0.692138671875,0.25439453125,-13.211297709923665,-13.466564885496183,-0.8593129770992367
838,0.709228515625,-0.711669921875,0.249267578125,-13.020458015267176,-13.298625954198473,-0.523435114503817
839,0.769287109375,-0.6318359375,0.339599609375,-12.005190839694658,-11.367328244274809,-0.8516793893129773
840,0.77490234375,-0.641845703125,0.335693359375,-14.119694656488551,-14.733740458015266,-0.6761068702290078
841,0.683837890625,-0.763916015625,0.20556640625,-9.753282442748093,-10.481832061068701,-0.6837404580152673
842,0.718505859375,-0.700927734375,0.201416015625,-7.050992366412215,-6.382595419847329,-0.7066412213740458
843,0.73291015625,-0.6875,0.19921875,-2.363969465648855,-2.336793893129771,-0.3631297709923665
844,0.73828125,-0.6884765625,0.223388671875,-0.005190839694657168,-0.35206106870229004,-0.1799236641221375
845,0.72119140625,-0.687744140625,0.147705078125,0.10931297709923626,-0.2680916030534351,-0.01198473282442758
846,0.728759765625,-0.695556640625,0.205078125,0.07877862595419804,0.014351145038167938,0.04145038167938922
847,0.72705078125,-0.69580078125,0.17724609375,0.02534351145038105,-0.336793893129771,-0.1417557251908398
848,0.73046875,-0.69482421875,0.176513671875,-0.11969465648855016,0.3196946564885496,-0.21045801526717567
849,0.732177734375,-0.697509765625,0.193603515625,0.11694656488549571,-0.01618320610687023,-0.1570229007633589
850,0.723388671875,-0.695068359375,0.17822265625,0.04061068702290038,-0.16122137404580153,-0.19519083969465661
851,0.72802734375,-0.692138671875,0.185302734375,0.20854961832061014,0.014351145038167938,-0.11885496183206118
852,0.729736328125,-0.692138671875,0.18359375,0.08641221374045749,-0.14595419847328245,-0.08832061068702302
853,0.7265625,-0.69384765625,0.181640625,-0.16549618320610726,0.014351145038167938,-0.2638931297709925
854,0.7314453125,-0.696533203125,0.186279296875,0.1856488549618316,0.014351145038167938,-0.1646564885496184
855,0.728759765625,-0.69287109375,0.18603515625,-0.23419847328244314,-0.05435114503816794,-0.1417557251908398
856,0.72900390625,-0.695068359375,0.189453125,0.017709923664121607,0.04488549618320611,-0.3325954198473284
857,0.721923828125,-0.69873046875,0.1865234375,-0.11206106870229071,0.014351145038167938,-0.25625954198473294
858,0.7255859375,-0.69580078125,0.1826171875,-0.005190839694657168,-0.05435114503816794,-0.31732824427480927
859,0.72509765625,-0.693603515625,0.1884765625,0.22381679389312925,-0.039083969465648856,-0.3631297709923665
860,0.7255859375,-0.69482421875,0.18896484375,0.15511450381679337,0.04488549618320611,-0.05778625954198485
861,0.7255859375,-0.69677734375,0.176513671875,-0.1807633587786266,0.037251908396946566,-0.11122137404580162
862,0.7275390625,-0.693603515625,0.188232421875,0.03297709923664094,-0.12305343511450381,-0.14938931297709934
863,0.725341796875,-0.695068359375,0.184814453125,-0.1273282442748096,0.12122137404580152,-0.28679389312977105
864,0.72705078125,-0.697265625,0.1826171875,-0.1273282442748096,-0.008549618320610687,-0.23335877862595428
865,0.730712890625,-0.694580078125,0.18603515625,0.17038167938931248,-0.02381679389312977,-0.1570229007633589
866,0.726806640625,-0.694580078125,0.18017578125,-0.08152671755725249,-0.0467175572519084,-0.34022900763358793
867,0.729248046875,-0.69091796875,0.1748046875,-0.05862595419847372,0.11358778625954198,-0.11885496183206118
868,0.7275390625,-0.69384765625,0.18701171875,0.3306870229007628,0.06778625954198474,-0.3936641221374047
869,0.727294921875,-0.694091796875,0.182861328125,0.11694656488549571,0.20519083969465648,-0.11122137404580162
870,0.72998046875,-0.698974609375,0.181884765625,-0.37923664122137435,0.212824427480916,-0.10358778625954207
871,0.726806640625,-0.699462890625,0.1806640625,0.2619847328244269,0.25099236641221373,-0.14938931297709934
872,0.7275390625,-0.69580078125,0.180908203125,-0.15786259541984782,0.037251908396946566,-0.05778625954198485
873,0.729248046875,-0.695556640625,0.178955078125,-0.15022900763358837,-0.13068702290076337,-0.1646564885496184
874,0.732666015625,-0.691162109375,0.181640625,0.14748091603053393,0.014351145038167938,-0.21045801526717567
875,0.728759765625,-0.697021484375,0.18359375,-0.07389312977099305,0.05251908396946565,-0.17229007633587795
876,0.730712890625,-0.69677734375,0.179443359375,0.03297709923664094,-0.07725190839694657,-0.1799236641221375
877,0.730712890625,-0.696533203125,0.18310546875,-0.0280916030534355,-0.2299236641221374,-0.35549618320610693
878,0.726806640625,-0.692138671875,0.18408203125,-0.0280916030534355,0.3425954198473283,-0.30206106870229016
879,0.725341796875,-0.697265625,0.185791015625,0.00244274809160272,0.1746564885496183,-0.4394656488549619
880,0.724365234375,-0.696044921875,0.1845703125,-0.07389312977099305,-0.1764885496183206,-0.3783969465648856
881,0.725830078125,-0.692626953125,0.182373046875,0.10167938931297682,-0.039083969465648856,-0.14938931297709934
882,0.72607421875,-0.696533203125,0.185546875,0.25435114503816747,0.006717557251908397,-0.004351145038168025
883,0.7294921875,-0.6962890625,0.18994140625,0.1856488549618316,-0.06198473282442748,-0.18755725190839706
884,0.727783203125,-0.695556640625,0.18408203125,0.16274809160305304,-0.12305343511450381,-0.23335877862595428
885,0.727783203125,-0.69873046875,0.193115234375,0.00244274809160272,-0.008549618320610687,-0.03488549618320619
886,0.729736328125,-0.698974609375,0.1904296875,0.13984732824427426,-0.06961832061068703,-0.23335877862595428
887,0.729248046875,-0.696533203125,0.184814453125,0.4757251908396942,0.3196946564885496,0.04145038167938922
888,0.726806640625,-0.6962890625,0.179443359375,0.07877862595419804,-0.0467175572519084,-0.05778625954198485
889,0.727294921875,-0.69775390625,0.18017578125,0.07877862595419804,0.296793893129771,0.1101526717557251
890,0.7275390625,-0.693603515625,0.1845703125,-0.012824427480916611,0.16702290076335877,-0.2944274809160306
891,0.73095703125,-0.69482421875,0.174072265625,0.3459541984732819,0.16702290076335877,-0.3096946564885497
892,0.72607421875,-0.693359375,0.1826171875,0.017709923664121607,-0.153587786259542,-0.35549618320610693
893,0.7236328125,-0.694580078125,0.183349609375,-0.11206106870229071,-0.10015267175572519,-0.25625954198473294
894,0.72509765625,-0.693359375,0.186767578125,0.02534351145038105,0.19755725190839693,0.07198473282442738
895,0.725341796875,-0.694091796875,0.189697265625,-0.005190839694657168,0.11358778625954198,-0.11122137404580162
896,0.727294921875,-0.692626953125,0.185302734375,0.06351145038167871,-0.08488549618320611,-0.1799236641221375
897,0.7265625,-0.69580078125,0.182861328125,-0.11969465648855016,0.12122137404580152,-0.24099236641221383
898,0.729248046875,-0.694091796875,0.17919921875,0.11694656488549571,0.08305343511450382,0.07198473282442738
899,0.728759765625,-0.700927734375,0.184326171875,0.04061068702290038,0.1593893129770992,-0.1646564885496184
900,0.7275390625,-0.69384765625,0.184814453125,-0.08152671755725249,-0.10015267175572519,-0.27152671755725205
901,0.72802734375,-0.699951171875,0.181884765625,0.0711450381679386,0.12122137404580152,-0.08832061068702302
902,0.7265625,-0.69384765625,0.18994140625,0.1856488549618316,0.014351145038167938,-0.13412213740458023
903,0.72705078125,-0.694580078125,0.17919921875,0.06351145038167871,-0.11541984732824427,-0.0501526717557253
904,0.732666015625,-0.696533203125,0.186767578125,0.04061068702290038,0.24335877862595418,-0.14938931297709934
905,0.728759765625,-0.69970703125,0.18212890625,0.0711450381679386,0.09068702290076336,-0.2486259541984734
906,0.72412109375,-0.698974609375,0.1884765625,-0.005190839694657168,0.14412213740458013,-0.3325954198473284
907,0.723876953125,-0.69677734375,0.185546875,0.09404580152671693,-0.01618320610687023,-0.2791603053435116
908,0.72607421875,-0.693115234375,0.182373046875,0.13984732824427426,-0.18412213740458017,-0.12648854961832073
909,0.7294921875,-0.69482421875,0.18310546875,-0.11969465648855016,-0.16885496183206108,-0.0730534351145039
910,0.726806640625,-0.696533203125,0.184326171875,-0.08916030534351194,-0.031450381679389315,-0.04251908396946574
911,0.728515625,-0.694580078125,0.18505859375,0.02534351145038105,0.037251908396946566,-0.21045801526717567
912,0.7275390625,-0.698486328125,0.18603515625,-0.06625954198473316,0.11358778625954198,-0.3249618320610688
913,0.728271484375,-0.69775390625,0.18359375,-0.13496183206106904,0.09068702290076336,-0.41656488549618326
914,0.724365234375,-0.696044921875,0.1865234375,0.22381679389312925,-0.0467175572519084,-0.2638931297709925
915,0.733154296875,-0.6943359375,0.182861328125,0.07877862595419804,0.1593893129770992,-0.4470992366412215
916,0.72607421875,-0.7001953125,0.18505859375,0.1856488549618316,-0.039083969465648856,-0.25625954198473294
917,0.727783203125,-0.69677734375,0.18408203125,0.04061068702290038,0.14412213740458013,-0.24099236641221383
918,0.724609375,-0.69482421875,0.182861328125,0.010076335877862164,0.04488549618320611,-0.4394656488549619
919,0.725341796875,-0.69482421875,0.18896484375,0.14748091603053393,-0.10015267175572519,-0.17229007633587795
920,0.726318359375,-0.694580078125,0.178955078125,0.14748091603053393,0.10595419847328244,-0.3478625954198474
921,0.728759765625,-0.695068359375,0.185791015625,-0.2723664122137408,-0.2299236641221374,-0.24099236641221383
922,0.728515625,-0.693603515625,0.181640625,0.43755725190839656,0.10595419847328244,-0.2486259541984734
923,0.72705078125,-0.694580078125,0.18701171875,0.23908396946564836,0.19755725190839693,-0.4470992366412215
924,0.7265625,-0.698486328125,0.18603515625,0.14748091603053393,-0.02381679389312977,-0.3096946564885497
925,0.7275390625,-0.696533203125,0.179931640625,0.13984732824427426,0.05251908396946565,-0.19519083969465661
926,0.72607421875,-0.697998046875,0.188720703125,-0.012824427480916611,0.029618320610687022,-0.12648854961832073
927,0.725830078125,-0.696044921875,0.18603515625,0.010076335877862164,0.11358778625954198,-0.4623664122137406
928,0.73046875,-0.6962890625,0.1845703125,-0.050992366412214274,-0.18412213740458017,-0.1417557251908398
929,0.728271484375,-0.695068359375,0.1875,0.13221374045801482,-0.08488549618320611,0.1330534351145037
930,0.728271484375,-0.697998046875,0.182861328125,0.08641221374045749,0.19755725190839693,-0.21809160305343517
931,0.7265625,-0.692626953125,0.182373046875,0.09404580152671693,-0.11541984732824427,-0.11122137404580162
932,0.7265625,-0.697998046875,0.18603515625,-0.020458015267176055,-0.21465648854961833,-0.25625954198473294
933,0.725341796875,-0.69677734375,0.18359375,-0.020458015267176055,0.029618320610687022,0.06435114503816783
934,0.72998046875,-0.69580078125,0.180908203125,-0.012824427480916611,-0.031450381679389315,-0.2944274809160306
935,0.72998046875,-0.69580078125,0.18017578125,-0.0280916030534355,-0.252824427480916,-0.11885496183206118
936,0.727294921875,-0.697265625,0.18212890625,-0.0280916030534355,-0.06961832061068703,-0.18755725190839706
937,0.724853515625,-0.694580078125,0.181640625,0.10167938931297682,0.02198473282442748,-0.28679389312977105
938,0.729248046875,-0.69677734375,0.180908203125,0.13984732824427426,0.029618320610687022,0.07961832061068691
939,0.722412109375,-0.695068359375,0.181640625,0.0711450381679386,-0.02381679389312977,-0.45473282442748103
940,0.729248046875,-0.696533203125,0.18212890625,-0.012824427480916611,-0.09251908396946565,-0.31732824427480927
941,0.72607421875,-0.69970703125,0.185791015625,-0.20366412213740492,-0.11541984732824427,-0.06541984732824435
942,0.729248046875,-0.697021484375,0.185546875,0.13984732824427426,0.212824427480916,-0.3096946564885497
943,0.724609375,-0.69189453125,0.18212890625,-0.06625954198473316,-0.2070229007633588,-0.21809160305343517
944,0.7275390625,-0.693115234375,0.18798828125,0.20854961832061014,0.24335877862595418,-0.23335877862595428
945,0.721923828125,-0.69482421875,0.181884765625,-0.11969465648855016,0.014351145038167938,-0.20282442748091611
946,0.72705078125,-0.693115234375,0.1806640625,0.15511450381679337,-0.031450381679389315,-0.12648854961832073
947,0.72900390625,-0.69970703125,0.189208984375,0.2161832061068698,0.16702290076335877,-0.30206106870229016
948,0.73193359375,-0.6943359375,0.18603515625,0.09404580152671693,0.14412213740458013,-0.1799236641221375
949,0.725341796875,-0.699462890625,0.18115234375,0.13984732824427426,0.037251908396946566,0.0567175572519083
950,0.72509765625,-0.6943359375,0.176025390625,0.1856488549618316,-0.12305343511450381,-0.3249618320610688
951,0.724365234375,-0.696044921875,0.182373046875,0.04061068702290038,-0.02381679389312977,-0.3249618320610688
952,0.72607421875,-0.69580078125,0.185791015625,-0.1731297709923667,0.04488549618320611,-0.24099236641221383
953,0.72509765625,-0.698974609375,0.1865234375,-0.08152671755725249,-0.09251908396946565,-0.17229007633587795
954,0.72607421875,-0.697021484375,0.17919921875,0.10167938931297682,-0.13068702290076337,-0.28679389312977105
955,0.72802734375,-0.692626953125,0.18212890625,0.010076335877862164,0.1364885496183206,-0.27152671755725205
956,0.7255859375,-0.6962890625,0.18896484375,-0.05862595419847372,0.02198473282442748,-0.08068702290076346
957,0.72705078125,-0.694091796875,0.189208984375,0.0711450381679386,-0.01618320610687023,0.010916030534351029
958,0.728515625,-0.697509765625,0.183837890625,-0.020458015267176055,-0.02381679389312977,-0.19519083969465661
959,0.72607421875,-0.695556640625,0.18505859375,0.2161832061068698,0.02198473282442748,-0.2486259541984734
960,0.726806640625,-0.697265625,0.1845703125,0.32305343511450335,0.212824427480916,0.1864885496183205
961,0.73046875,-0.6953125,0.1826171875,0.12458015267175515,-0.16122137404580153,-0.21045801526717567
962,0.726806640625,-0.69677734375,0.18359375,0.010076335877862164,-0.08488549618320611,-0.27152671755725205
963,0.724853515625,-0.69482421875,0.179443359375,0.08641221374045749,-0.11541984732824427,-0.31732824427480927
964,0.728515625,-0.69677734375,0.181640625,0.02534351145038105,-0.13068702290076337,-0.22572519083969472
965,0.72802734375,-0.697509765625,0.182373046875,0.017709923664121607,-0.0009160305343511452,-0.2944274809160306
966,0.7265625,-0.697509765625,0.18310546875,0.16274809160305304,-0.10015267175572519,-0.35549618320610693
967,0.72607421875,-0.69091796875,0.188232421875,0.06351145038167871,-0.10015267175572519,-0.21045801526717567
968,0.72998046875,-0.697509765625,0.181640625,-0.020458015267176055,0.1593893129770992,-0.30206106870229016
969,0.72705078125,-0.69970703125,0.1796875,0.3154198473282439,0.14412213740458013,-0.2486259541984734
970,0.727294921875,-0.693603515625,0.1875,-0.15022900763358837,0.006717557251908397,-0.3096946564885497
971,0.72607421875,-0.693603515625,0.184326171875,0.277251908396946,0.07541984732824428,-0.08832061068702302
972,0.72607421875,-0.694091796875,0.18505859375,0.08641221374045749,-0.14595419847328245,0.04145038167938922
973,0.731689453125,-0.69384765625,0.186767578125,0.00244274809160272,0.07541984732824428,-0.45473282442748103
974,0.726318359375,-0.697998046875,0.185791015625,0.2161832061068698,0.1746564885496183,-0.23335877862595428
975,0.727783203125,-0.695556640625,0.186767578125,0.17038167938931248,0.19755725190839693,-0.27152671755725205
976,0.727783203125,-0.692626953125,0.18798828125,0.19328244274809103,0.22045801526717557,0.010916030534351029
977,0.72705078125,-0.697021484375,0.185302734375,0.11694656488549571,-0.16885496183206108,-0.08068702290076346
978,0.7236328125,-0.69482421875,0.177978515625,0.17801526717557214,0.3349618320610687,-0.25625954198473294
979,0.72265625,-0.694580078125,0.1884765625,0.22381679389312925,-0.05435114503816794,-0.22572519083969472
980,0.730712890625,-0.694091796875,0.181396484375,0.08641221374045749,-0.06961832061068703,-0.24099236641221383
981,0.7255859375,-0.69091796875,0.1865234375,0.12458015267175515,0.07541984732824428,-0.25625954198473294
982,0.7294921875,-0.690673828125,0.18798828125,0.39175572519083923,0.16702290076335877,-0.21809160305343517
983,0.728271484375,-0.69580078125,0.1884765625,0.3001526717557248,0.14412213740458013,-0.1570229007633589
984,0.728515625,-0.696044921875,0.18896484375,-0.050992366412214274,-0.13832061068702292,-0.19519083969465661
985,0.728515625,-0.695556640625,0.186279296875,0.00244274809160272,0.1899236641221374,-0.05778625954198485
986,0.727783203125,-0.695556640625,0.1826171875,-0.14259541984732893,-0.08488549618320611,-0.11122137404580162
987,0.727783203125,-0.693115234375,0.177734375,-0.06625954198473316,-0.0009160305343511452,-0.1417557251908398
988,0.725341796875,-0.69580078125,0.18798828125,-0.03572519083969494,-0.09251908396946565,-0.11885496183206118
989,0.7265625,-0.696533203125,0.183837890625,0.10931297709923626,-0.2299236641221374,-0.2486259541984734
990,0.7294921875,-0.693115234375,0.180419921875,0.0711450381679386,-0.07725190839694657,-0.14938931297709934
991,0.7265625,-0.69482421875,0.18359375,0.05587786259541927,-0.11541984732824427,0.15595419847328235
992,0.730224609375,-0.69482421875,0.18115234375,-0.0280916030534355,0.10595419847328244,0.018549618320610584
993,0.727294921875,-0.695068359375,0.1826171875,-0.11206106870229071,-0.01618320610687023,-0.0730534351145039
994,0.725830078125,-0.6953125,0.18701171875,0.06351145038167871,-0.2680916030534351,-0.09595419847328257
995,0.72900390625,-0.695556640625,0.177490234375,0.1856488549618316,0.10595419847328244,-0.3631297709923665
996,0.726806640625,-0.69287109375,0.1845703125,0.06351145038167871,-0.09251908396946565,-0.01198473282442758
997,0.725830078125,-0.694580078125,0.175048828125,-0.13496183206106904,0.02198473282442748,-0.019618320610687134
998,0.730224609375,-0.695068359375,0.1865234375,0.17038167938931248,-0.0009160305343511452,-0.30206106870229016
999,0.72607421875,-0.6923828125,0.177734375,-0.03572519083969494,0.2280916030534351,-0.21045801526717567
1000,0.725830078125,-0.69677734375,0.1865234375,0.048244274809159826,0.19755725190839693,-0.3783969465648856
1001,0.73046875,-0.69580078125,0.181640625,0.048244274809159826,-0.18412213740458017,-0.08068702290076346
1002,0.7236328125,-0.6953125,0.18603515625,-0.04335877862595483,0.06015267175572519,-0.21045801526717567
1003,0.726318359375,-0.6923828125,0.181396484375,0.048244274809159826,0.19755725190839693,0.0567175572519083
1004,0.73095703125,-0.697021484375,0.17919921875,0.17801526717557214,-0.19175572519083972,-0.28679389312977105
1005,0.725341796875,-0.696044921875,0.176025390625,-0.09679389312977138,-0.16885496183206108,-0.43183206106870237
1006,0.72607421875,-0.692626953125,0.17919921875,-0.09679389312977138,-0.1764885496183206,-0.14938931297709934
1007,0.7275390625,-0.694091796875,0.1875,-0.005190839694657168,-0.2451908396946565,-0.1570229007633589
1008,0.72802734375,-0.6923828125,0.188720703125,0.19328244274809103,-0.12305343511450381,-0.1646564885496184
1009,0.72412109375,-0.69677734375,0.1845703125,0.09404580152671693,0.20519083969465648,-0.05778625954198485
1010,0.727783203125,-0.696044921875,0.182861328125,-0.020458015267176055,0.28916030534351145,-0.3478625954198474
1011,0.73046875,-0.695068359375,0.188720703125,0.13984732824427426,-0.02381679389312977,-0.3783969465648856
1012,0.72509765625,-0.691650390625,0.185791015625,-0.03572519083969494,0.19755725190839693,-0.2791603053435116
1013,0.724853515625,-0.697021484375,0.187255859375,-0.1273282442748096,-0.01618320610687023,-0.4470992366412215
1014,0.72900390625,-0.69384765625,0.179931640625,-0.0280916030534355,0.029618320610687022,-0.31732824427480927
1015,0.725830078125,-0.69677734375,0.1875,0.10931297709923626,-0.10778625954198473,-0.0501526717557253
1016,0.7255859375,-0.692138671875,0.181396484375,0.12458015267175515,0.2738931297709924,-0.3478625954198474
1017,0.730224609375,-0.6962890625,0.187255859375,0.24671755725190803,0.006717557251908397,-0.25625954198473294
1018,0.7236328125,-0.69482421875,0.17919921875,0.14748091603053393,-0.16122137404580153,-0.10358778625954207
1019,0.726318359375,-0.695556640625,0.18408203125,0.15511450381679337,-0.01618320610687023,-0.25625954198473294
1020,0.7275390625,-0.6982421875,0.18115234375,-0.20366412213740492,-0.02381679389312977,-0.10358778625954207
1021,0.727783203125,-0.69482421875,0.1884765625,0.19328244274809103,-0.13068702290076337,-0.10358778625954207
1022,0.7255859375,-0.694091796875,0.18505859375,-0.18839694656488604,-0.10015267175572519,-0.23335877862595428
1023,0.72705078125,-0.69677734375,0.189208984375,0.11694656488549571,0.0983206106870229,-0.27152671755725205
1024,0.728271484375,-0.695556640625,0.18505859375,0.048244274809159826,-0.07725190839694657,-0.004351145038168025
1025,0.7314453125,-0.694580078125,0.183837890625,-0.020458015267176055,0.14412213740458013,-0.21045801526717567
1026,0.721435546875,-0.71630859375,0.18408203125,0.3993893129770987,0.18229007633587785,-0.23335877862595428
1027,0.732177734375,-0.690185546875,0.209716796875,0.12458015267175515,-0.031450381679389315,-0.3249618320610688
1028,0.73828125,-0.665771484375,0.216552734375,0.06351145038167871,-0.2451908396946565,-0.1417557251908398
1029,0.7236328125,-0.681884765625,0.158203125,0.29251908396946513,0.3654961832061069,-0.35549618320610693
1030,0.716064453125,-0.727783203125,0.184326171875,-0.1273282442748096,-0.05435114503816794,-0.04251908396946574
1031,0.73046875,-0.699951171875,0.194580078125,-0.005190839694657168,0.212824427480916,-0.30206106870229016
1032,0.734375,-0.685546875,0.17724609375,0.02534351145038105,-0.08488549618320611,-0.30206106870229016
1033,0.668212890625,-0.684814453125,0.12060546875,-0.6235114503816797,0.02198473282442748,0.278091603053435
1034,0.724853515625,-0.703857421875,0.1806640625,0.5673282442748087,0.029618320610687022,0.0567175572519083
1035,0.725341796875,-0.6708984375,0.168701171875,0.25435114503816747,0.3349618320610687,-0.38603053435114515
1036,0.826171875,-0.365966796875,0.143310546875,4.788702290076335,13.602137404580153,-3.0272519083969467
1037,0.802978515625,-0.534912109375,0.225830078125,18.781068702290074,19.30442748091603,-0.1417557251908398
1038,0.689208984375,-0.806640625,0.31787109375,14.55969465648855,10.98381679389313,1.4536641221374045
1039,0.669921875,-0.808349609375,0.233642578125,14.490992366412213,13.205190839694657,1.6750381679389312
1040,0.696044921875,-0.746826171875,0.257080078125,11.605496183206107,12.854045801526718,0.37732824427480904
1041,0.71142578125,-0.650146484375,0.205322265625,12.773435114503815,13.006717557251909,0.010916030534351029
1042,0.719482421875,-0.65625,0.266357421875,15.010076335877862,15.228091603053436,0.03381679389312969
1043,0.70458984375,-0.69091796875,0.30322265625,13.681832061068702,14.075419847328245,0.32389312977099227
1044,0.698974609375,-0.68798828125,0.327392578125,13.926106870229006,14.464732824427482,0.23229007633587775
1045,0.72607421875,-0.6298828125,0.352783203125,13.842137404580152,14.533435114503817,0.30862595419847316
1046,0.697509765625,-0.6630859375,0.363525390625,13.658931297709923,13.640305343511452,0.6139694656488548
1047,0.697998046875,-0.67041015625,0.393310546875,13.552061068702288,14.021984732824428,-0.18755725190839706
1048,0.68408203125,-0.66162109375,0.371826171875,12.681832061068702,13.434198473282443,-0.21045801526717567
1049,0.717041015625,-0.607421875,0.4013671875,13.666564885496182,14.380763358778626,-0.0730534351145039
1050,0.682373046875,-0.645263671875,0.445556640625,14.605496183206107,14.235725190839695,0.3315267175572518
1051,0.651123046875,-0.671875,0.47802734375,14.36885496183206,14.044885496183207,0.4918320610687022
1052,0.665283203125,-0.65625,0.481689453125,13.414656488549618,13.693740458015268,0.3391603053435113
1053,0.68701171875,-0.604248046875,0.4990234375,13.109312977099236,13.250992366412214,0.06435114503816783
1054,0.65576171875,-0.61669921875,0.4833984375,14.239083969465648,13.34259541984733,0.48419847328244264
1055,0.615234375,-0.65869140625,0.49755859375,13.773435114503815,13.586870229007635,0.1864885496183205
1056,0.6484375,-0.62939453125,0.525634765625,13.735267175572519,14.411297709923664,-0.10358778625954207
1057,0.650390625,-0.5859375,0.541259765625,13.36885496183206,13.678473282442749,0.41549618320610676
1058,0.619873046875,-0.603759765625,0.545166015625,13.636030534351145,13.273893129770993,0.4536641221374045
1059,0.615478515625,-0.615966796875,0.572021484375,14.086412213740457,14.205190839694657,0.10251908396946555
1060,0.616943359375,-0.600830078125,0.58349609375,14.002442748091601,14.533435114503817,0.010916030534351029
1061,0.627197265625,-0.56005859375,0.635498046875,13.376488549618319,13.686106870229008,0.2551908396946564
1062,0.59423828125,-0.568603515625,0.6259765625,14.239083969465648,13.861679389312979,0.28572519083969455
1063,0.5712890625,-0.59716796875,0.60986328125,13.376488549618319,13.121221374045803,0.1635877862595419
1064,0.586669921875,-0.551025390625,0.63525390625,13.857404580152672,14.441832061068704,0.1483206106870228
1065,0.589599609375,-0.53857421875,0.6953125,14.567328244274808,14.777709923664123,0.11778625954198463
1066,0.564208984375,-0.562744140625,0.7626953125,13.910839694656488,13.487633587786261,0.5681679389312977
1067,0.524658203125,-0.62353515625,0.724609375,12.826870229007632,13.029618320610687,0.20938931297709912
1068,0.570556640625,-0.5185546875,0.70947265625,12.796335877862594,13.113587786259544,0.14068702290076326
1069,0.565673828125,-0.484130859375,0.697265625,13.819236641221373,13.815877862595421,0.17122137404580143
1070,0.52783203125,-0.541259765625,0.744384765625,14.54442748091603,13.884580152671756,0.37732824427480904
1071,0.507080078125,-0.537353515625,0.74755859375,13.399389312977098,13.586870229007635,0.1635877862595419
1072,0.524169921875,-0.483154296875,0.774169921875,13.429923664122137,13.50290076335878,0.07961832061068691
1073,0.5146484375,-0.4716796875,0.765869140625,13.483358778625954,13.044885496183207,0.47656488549618314
1074,0.470947265625,-0.5185546875,0.7646484375,14.002442748091601,13.609770992366412,0.3849618320610686
1075,0.496826171875,-0.4755859375,0.79296875,13.727633587786258,13.701374045801527,0.28572519083969455
1076,0.49560546875,-0.447509765625,0.806884765625,13.574961832061067,13.518167938931299,0.03381679389312969
1077,0.468017578125,-0.464599609375,0.821044921875,13.803969465648853,13.716641221374047,0.3315267175572518
1078,0.449951171875,-0.4697265625,0.80859375,13.964274809160305,13.556335877862596,0.1864885496183205
1079,0.451171875,-0.427001953125,0.864990234375,13.552061068702288,13.533435114503817,0.11778625954198463
1080,0.453369140625,-0.41552734375,0.8740234375,13.552061068702288,13.693740458015268,0.41549618320610676
1081,0.4296875,-0.409423828125,0.85986328125,13.727633587786258,13.571603053435116,0.4231297709923663
1082,0.39794921875,-0.422119140625,0.89404296875,13.987175572519083,13.884580152671756,0.2399236641221373
1083,0.419677734375,-0.408447265625,0.911376953125,13.803969465648853,14.037251908396948,0.4918320610687022
1084,0.41748046875,-0.3720703125,0.9111328125,13.567328244274808,13.854045801526718,0.27045801526717544
1085,0.403564453125,-0.3798828125,0.982177734375,13.094045801526716,12.899847328244276,0.17122137404580143
1086,0.35546875,-0.394287109375,0.90869140625,13.452824427480914,13.281526717557252,0.4231297709923663
1087,0.350830078125,-0.378662109375,0.916015625,12.941374045801526,13.075419847328245,0.30862595419847316
1088,0.365966796875,-0.325439453125,0.9140625,13.017709923664121,13.197557251908398,0.21702290076335867
1089,0.328857421875,-0.35009765625,0.940185546875,13.971908396946564,13.510534351145038,0.4002290076335877
1090,0.309326171875,-0.3349609375,0.931396484375,13.54442748091603,12.98381679389313,0.11778625954198463
1091,0.3310546875,-0.326171875,0.962890625,13.422290076335877,13.716641221374047,0.21702290076335867
1092,0.30517578125,-0.282470703125,0.943603515625,13.338320610687022,13.434198473282443,0.1635877862595419
1093,0.2783203125,-0.2900390625,0.950439453125,14.032977099236641,13.579236641221375,0.36206106870229
1094,0.25830078125,-0.30126953125,0.9501953125,14.307786259541984,14.105954198473283,0.11778625954198463
1095,0.279052734375,-0.257568359375,0.98779296875,14.223816793893128,14.487633587786261,0.1635877862595419
1096,0.270751953125,-0.229736328125,1.002685546875,13.674198473282441,14.029618320610687,0.2551908396946564
1097,0.236328125,-0.2490234375,1.0224609375,14.185648854961832,13.846412213740459,0.41549618320610676
1098,0.2216796875,-0.252197265625,1.028076171875,13.819236641221373,13.632671755725191,0.28572519083969455
1099,0.231689453125,-0.220947265625,1.02392578125,13.956641221374046,13.777709923664123,0.1101526717557251
1100,0.2255859375,-0.18212890625,1.03369140625,13.765801526717556,13.739541984732826,0.35442748091603044
1101,0.18701171875,-0.195556640625,1.031005859375,13.636030534351145,13.144122137404581,0.19412213740458006
1102,0.174072265625,-0.2080078125,1.02197265625,13.414656488549618,13.434198473282443,0.4536641221374045
1103,0.207275390625,-0.141357421875,1.033935546875,13.323053435114502,13.304427480916031,0.14068702290076326
1104,0.17138671875,-0.152099609375,1.072509765625,14.788702290076335,14.82351145038168,0.07961832061068691
1105,0.141357421875,-0.148681640625,1.0517578125,13.658931297709923,13.189923664122139,0.6216030534351145
1106,0.121337890625,-0.158447265625,1.040771484375,13.323053435114502,13.373129770992367,0.0567175572519083
1107,0.129150390625,-0.11083984375,1.025390625,13.185648854961832,13.922748091603054,0.003282442748091474
1108,0.12255859375,-0.083984375,1.033935546875,13.86503816793893,13.777709923664123,0.11778625954198463
1109,0.087158203125,-0.10986328125,1.037353515625,14.323053435114502,14.128854961832062,0.3162595419847327
1110,0.080322265625,-0.078857421875,1.044921875,14.155114503816794,14.075419847328245,0.4231297709923663
1111,0.072998046875,-0.062255859375,1.06689453125,13.666564885496182,13.869312977099238,0.2933587786259541
1112,0.080078125,-0.02587890625,1.056396484375,14.315419847328243,14.052519083969466,0.39259541984732815
1113,0.0302734375,-0.050537109375,1.062255859375,12.36885496183206,11.99908396946565,1.308625954198473
1114,0.018798828125,-0.048095703125,1.023681640625,14.803969465648853,14.693740458015268,0.4078625954198472
1115,0.040771484375,-0.011474609375,1.096923828125,14.292519083969465,14.334961832061069,0.1483206106870228
1116,0.019287109375,0.0107421875,1.0869140625,13.689465648854961,13.17465648854962,0.3467938931297709
