sample,Accel X,Accel Y,Accel Z,Gyro X,Gyro Y,Gyro Z,|W_i|,W_i . W_ref,GyroXnew,GyroYnew,GyroZnew,Vx,Vy,Vz,ux,uy,uz,ux-angle,uy-angle,uz-angle
1900,-0.269775391,0.328125,0.836914063,7.102061069,7.475419847,0.19129771,10.31299026,106.3577681,7.102061069,7.475419847,0.19129771,13.96298295,14.26072558,0.261678715,0.699548189,0.714465153,0.013110155,45.60923365,44.40061632,89.24882193
1569,-0.364746094,0.396728516,0.720703125,9.13259542,8.620458015,0.008091603,12.55852941,129.3033412,9.13259542,8.620458015,0.008091603,,,,,,,,,
1561,-0.264892578,0.300537109,0.901855469,9.208931298,8.910534351,-0.182748092,12.81543737,131.9774185,9.208931298,8.910534351,-0.182748092,,,,,,,,,
1063,-0.251220703,0.287353516,0.883300781,-9.287251908,-9.295572519,0.19129771,13.1414349,-135.4103427,9.287251908,9.295572519,-0.19129771,,,,,,,,,
1401,-0.255859375,0.30859375,0.9375,-10.27198473,-10.52458015,0.282900763,14.70919748,-151.5738,10.27198473,10.52458015,-0.282900763,,,,,,,,,
1899,-0.260253906,0.328369141,0.872802734,10.1478626,10.71206107,0.412671756,14.76135717,152.226837,10.1478626,10.71206107,0.412671756,,,,,,,,,
1116,0.403808594,-0.343505859,0.842529297,-10.68419847,-10.30320611,-0.770534351,14.86276812,-153.0480229,10.68419847,10.30320611,0.770534351,,,,,,,,,
1097,0.171875,-0.094970703,0.910400391,-10.62312977,-10.57038168,-0.106412214,14.98649988,-154.4845138,10.62312977,10.57038168,0.106412214,,,,,,,,,
1078,-0.085693359,0.117431641,0.811279297,-10.86740458,-10.47114504,-0.785801527,15.11167908,-155.6074985,10.86740458,10.47114504,0.785801527,,,,,,,,,
1155,0.720703125,-0.651855469,0.328857422,-10.77580153,-11.10473282,-0.144580153,15.47429782,-159.5705985,10.77580153,11.10473282,0.144580153,,,,,,,,,
1810,0.710693359,-0.651367188,0.296630859,10.77381679,11.24641221,0.19129771,15.57541366,160.6245527,10.77381679,11.24641221,0.19129771,,,,,,,,,
1588,-0.565429688,0.655029297,0.482177734,11.69748092,10.88,0.12259542,15.97562172,164.432244,11.69748092,10.88,0.12259542,,,,,,,,,
1703,0.029541016,0.040283203,-0.978515625,11.3921374,11.23114504,-0.045343511,15.99754574,164.856506,11.3921374,11.23114504,-0.045343511,,,,,,,,,
1072,-0.123535156,0.058105469,1.054443359,-12.17274809,-12.00549618,0.832519084,17.1172668,-176.0384658,12.17274809,12.00549618,-0.832519084,,,,,,,,,
1080,-0.070800781,0.123535156,0.838623047,-12.1651145,-12.08183206,-0.388854962,17.14969052,-176.7885404,12.1651145,12.08183206,0.388854962,,,,,,,,,
1574,-0.428710938,0.467529297,0.737792969,12.5219084,11.71969466,-0.198015267,17.15192825,176.5031163,12.5219084,11.71969466,-0.198015267,,,,,,,,,
1076,-0.080322266,0.22265625,1.052978516,-12.73763359,-11.66961832,-0.281984733,17.27734981,-177.752691,12.73763359,11.66961832,0.281984733,,,,,,,,,
1562,-0.28125,0.326660156,0.881835938,12.31580153,12.1929771,-0.114045802,17.33091643,178.5933809,12.31580153,12.1929771,-0.114045802,,,,,,,,,
1811,0.702880859,-0.669189453,0.432617188,12.73564885,11.85709924,0.267633588,17.40284982,179.1373486,12.73564885,11.85709924,0.267633588,,,,,,,,,
1586,-0.513427734,0.549316406,0.581787109,12.53717557,12.16244275,-0.297251908,17.46980663,179.9022888,12.53717557,12.16244275,-0.297251908,,,,,,,,,
1684,-0.218261719,0.284667969,-0.997070313,12.74328244,11.99450382,-0.427022901,17.50547679,180.0858335,12.74328244,11.99450382,-0.427022901,,,,,,,,,
1157,0.727539063,-0.670654297,0.251953125,-12.13458015,-12.78412214,-0.846870229,17.64650117,-181.909214,12.13458015,12.78412214,0.846870229,,,,,,,,,
1870,0.125732422,-0.064941406,1.033203125,12.30816794,12.69679389,0.244732824,17.68500685,182.3740422,12.30816794,12.69679389,0.244732824,,,,,,,,,
1085,0.015625,0.099609375,0.962158203,-12.6078626,-12.39480916,-0.907938931,17.70349814,-182.3718991,12.6078626,12.39480916,0.907938931,,,,,,,,,
1136,0.603271484,-0.536621094,0.620117188,-12.2948855,-12.81465649,-0.495725191,17.76584852,-183.2087962,12.2948855,12.81465649,0.495725191,,,,,,,,,
1332,-0.649169922,0.716308594,-0.233886719,-12.4780916,-12.70778626,-0.724732824,17.82458525,-183.7548459,12.4780916,12.70778626,0.724732824,,,,,,,,,
1071,-0.148681641,0.133789063,0.927001953,-12.20328244,-13.01312977,0.107328244,17.84021211,-183.9265341,12.20328244,13.01312977,-0.107328244,,,,,,,,,
1665,-0.438720703,0.503417969,-0.800537109,12.97229008,12.3151145,-0.198015267,17.88802854,184.1527678,12.97229008,12.3151145,-0.198015267,,,,,,,,,
1152,0.703857422,-0.650634766,0.365966797,-12.24145038,-13.03603053,-0.80870229,17.90098318,-184.5440325,12.24145038,13.03603053,0.80870229,,,,,,,,,
1153,0.716308594,-0.661132813,0.320800781,-12.79870229,-12.45587786,-1.381221374,17.91266161,-184.2743063,12.79870229,12.45587786,1.381221374,,,,,,,,,
1069,-0.194580078,0.239013672,0.887939453,-13.01244275,-12.31083969,0.000458015,17.91313598,-184.4437708,13.01244275,12.31083969,-0.000458015,,,,,,,,,
1210,0.593994141,-0.508300781,-0.656982422,-12.54679389,-12.89099237,-0.297251908,17.99133347,-185.5305402,12.54679389,12.89099237,0.297251908,,,,,,,,,
1593,-0.573486328,0.616455078,0.46875,13.07152672,12.53648855,-0.106412214,18.11186571,186.5299399,13.07152672,12.53648855,-0.106412214,,,,,,,,,
1103,0.249755859,-0.195800781,0.951660156,-12.6689313,-12.96732824,-0.037709924,18.12884012,-186.9189605,12.6689313,12.96732824,0.037709924,,,,,,,,,
1724,0.302490234,-0.21875,-0.960449219,12.78908397,12.85709924,0.023358779,18.13466887,186.9455387,12.78908397,12.85709924,0.023358779,,,,,,,,,
1400,-0.27734375,0.348144531,0.934570313,-12.60022901,-13.08946565,-0.404122137,18.17314493,-187.4141548,12.60022901,13.08946565,0.404122137,,,,,,,,,
1135,0.586425781,-0.514892578,0.512207031,-12.91320611,-12.73068702,-1.259083969,18.17708933,-187.1184687,12.91320611,12.73068702,1.259083969,,,,,,,,,
1190,0.705566406,-0.642822266,-0.378173828,-12.53916031,-13.15053435,-0.610229008,18.1807446,-187.4763831,12.53916031,13.15053435,0.610229008,,,,,,,,,
1758,0.646972656,-0.573730469,-0.553466797,12.94175573,12.78839695,-0.068244275,18.19441659,187.4987209,12.94175573,12.78839695,-0.068244275,,,,,,,,,
1229,0.406982422,-0.325439453,-0.908203125,-12.40938931,-13.28793893,-0.846870229,18.20108385,-187.6271675,12.40938931,13.28793893,0.846870229,,,,,,,,,
1102,0.231445313,-0.115234375,0.8359375,-12.98954198,-12.79175573,-0.411755725,18.23531624,-187.955033,12.98954198,12.79175573,0.411755725,,,,,,,,,
1851,0.341308594,-0.310791016,0.832275391,12.78145038,13.00977099,0.473740458,18.24401395,188.1187669,12.78145038,13.00977099,0.473740458,,,,,,,,,
1191,0.728271484,-0.688964844,-0.335693359,-12.51625954,-13.26503817,-0.587328244,18.24727226,-188.1653238,12.51625954,13.26503817,0.587328244,,,,,,,,,
1568,-0.345703125,0.385986328,0.832519531,13.13259542,12.77312977,0.26,18.32172226,188.8027399,13.13259542,12.77312977,0.26,,,,,,,,,
1889,-0.131835938,0.171142578,0.977539063,12.97992366,12.91053435,0.840152672,18.32665196,188.8565945,12.97992366,12.91053435,0.840152672,,,,,,,,,
1342,-0.671875,0.705566406,-0.007080078,-13.08114504,-12.82992366,-0.556793893,18.33121153,-188.9186703,13.08114504,12.82992366,0.556793893,,,,,,,,,
1081,-0.019775391,0.090576172,1.148681641,-13.02770992,-12.89862595,-0.350687023,18.33626894,-189.0133215,13.02770992,12.89862595,0.350687023,,,,,,,,,
1065,-0.255371094,0.380859375,0.783447266,-12.92083969,-12.9978626,-0.724732824,18.3416948,-189.0677123,12.92083969,12.9978626,0.724732824,,,,,,,,,
1248,0.183349609,-0.109375,-1.066162109,-12.97427481,-13.00549618,-0.594961832,18.38011745,-189.4794511,12.97427481,13.00549618,0.594961832,,,,,,,,,
1720,0.246337891,-0.187988281,-1.08203125,12.79671756,13.28458015,-0.251450382,18.44720243,190.1427818,12.79671756,13.28458015,-0.251450382,,,,,,,,,
1074,-0.126708984,0.15234375,0.944335938,-12.92847328,-13.21160305,0.618778626,18.49526328,-190.4627155,12.92847328,13.21160305,-0.618778626,,,,,,,,,
1067,-0.203857422,0.203369141,0.908203125,-12.9819084,-13.17343511,-0.274351145,18.49715132,-190.7277473,12.9819084,13.17343511,0.274351145,,,,,,,,,
1087,0.046386719,-0.053955078,0.991455078,-12.81396947,-13.3719084,0.076793893,18.52057356,-190.9515326,12.81396947,13.3719084,-0.076793893,,,,,,,,,
1120,0.451416016,-0.390380859,0.782958984,-13.11931298,-13.06656489,-0.564427481,18.52485005,-190.9601941,13.11931298,13.06656489,0.564427481,,,,,,,,,
1739,0.478271484,-0.455078125,-0.83984375,13.00282443,13.22351145,0.359236641,18.54895547,191.2668742,13.00282443,13.22351145,0.359236641,,,,,,,,,
1778,0.747314453,-0.665527344,-0.249755859,12.97229008,13.29984733,0.32870229,18.5815579,191.614819,12.97229008,13.29984733,0.32870229,,,,,,,,,
1361,-0.613037109,0.667236328,0.327880859,-13.14221374,-13.1810687,-0.449923664,18.61882879,-191.9568965,13.14221374,13.1810687,0.449923664,,,,,,,,,
1129,0.549560547,-0.483886719,0.661132813,-12.88267176,-13.46351145,-0.510992366,18.64109668,-192.2366739,12.88267176,13.46351145,0.510992366,,,,,,,,,
1171,0.764160156,-0.657958984,-0.004394531,-13.34832061,-13.01312977,-0.831603053,18.66040657,-192.2382805,13.34832061,13.01312977,0.831603053,,,,,,,,,
1303,-0.468994141,0.529541016,-0.638183594,-12.65366412,-13.72305344,-0.717099237,18.68024739,-192.5898608,12.65366412,13.72305344,0.717099237,,,,,,,,,
1100,0.237304688,-0.192626953,1.011230469,-13.21854962,-13.25740458,-0.823969466,18.73947053,-193.1412354,13.21854962,13.25740458,0.823969466,,,,,,,,,
1121,0.460449219,-0.392822266,0.789550781,-13.14221374,-13.35664122,-0.549160305,18.74617891,-193.2883586,13.14221374,13.35664122,0.549160305,,,,,,,,,
1092,0.108886719,-0.081787109,0.991699219,-13.05061069,-13.45587786,-0.259083969,18.74689875,-193.3241327,13.05061069,13.45587786,0.259083969,,,,,,,,,
1148,0.6796875,-0.622802734,0.389160156,-13.18038168,-13.3719084,-0.587328244,18.78497671,-193.6808596,13.18038168,13.3719084,0.587328244,,,,,,,,,
1182,0.756103516,-0.673828125,-0.214599609,-13.15748092,-13.51694656,-0.572061069,18.87205347,-194.5995176,13.15748092,13.51694656,0.572061069,,,,,,,,,
1607,-0.647216797,0.696289063,0.232177734,13.36923664,13.33801527,0.015725191,18.88489838,194.6594073,13.36923664,13.33801527,0.015725191,,,,,,,,,
1083,0.002441406,-0.002441406,0.948242188,-13.34832061,-13.36427481,-0.08351145,18.88884534,-194.7201288,13.34832061,13.36427481,0.08351145,,,,,,,,,
1890,-0.151855469,0.199951172,0.895751953,12.98755725,13.76549618,0.389770992,18.92927495,195.2158504,12.98755725,13.76549618,0.389770992,,,,,,,,,
1161,0.75,-0.671875,0.197265625,-13.1651145,-13.60091603,-0.488091603,18.93524202,-195.2653756,13.1651145,13.60091603,0.488091603,,,,,,,,,
1759,0.644287109,-0.576904297,-0.619384766,13.13259542,13.68152672,0.030992366,18.96444558,195.5495798,13.13259542,13.68152672,0.030992366,,,,,,,,,
1147,0.676757813,-0.606689453,0.390380859,-13.24145038,-13.57038168,-1.091145038,18.99162617,-195.6946233,13.24145038,13.57038168,1.091145038,,,,,,,,,
1267,-0.067138672,0.129394531,-1.063720703,-13.42465649,-13.41770992,-0.915572519,19.00248969,-195.8208922,13.42465649,13.41770992,0.915572519,,,,,,,,,
1322,-0.621582031,0.618164063,-0.422119141,-13.02007634,-13.84519084,-0.80870229,19.02276785,-196.1226945,13.02007634,13.84519084,0.80870229,,,,,,,,,
1725,0.306396484,-0.232421875,-1.020507813,13.39977099,13.5059542,-0.037709924,19.02540626,196.1214561,13.39977099,13.5059542,-0.037709924,,,,,,,,,
1809,0.710693359,-0.645751953,0.2890625,13.38450382,13.52885496,-0.075877863,19.03104349,196.1769191,13.38450382,13.52885496,-0.075877863,,,,,,,,,
1719,0.235839844,-0.093994141,-0.988037109,13.35396947,13.55175573,-0.60259542,19.03527528,196.0304952,13.35396947,13.55175573,-0.60259542,,,,,,,,,
1227,0.446044922,-0.392578125,-0.883544922,-13.02770992,-13.8680916,-0.594961832,19.03678466,-196.3072135,13.02770992,13.8680916,0.594961832,,,,,,,,,
1198,0.6953125,-0.602050781,-0.475585938,-13.31778626,-13.60091603,-0.442290076,19.04058739,-196.340898,13.31778626,13.60091603,0.442290076,,,,,,,,,
1871,0.1015625,-0.049316406,0.927001953,13.36923664,13.55938931,0.405038168,19.04619602,196.3887459,13.36923664,13.55938931,0.405038168,,,,,,,,,
1288,-0.329101563,0.380126953,-0.895751953,-13.19564885,-13.73068702,-0.556793893,19.05169111,-196.4654677,13.19564885,13.73068702,0.556793893,,,,,,,,,
1812,0.687988281,-0.618408203,0.310546875,13.40740458,13.55938931,0.05389313,19.06878183,196.5926437,13.40740458,13.55938931,0.05389313,,,,,,,,,
1817,0.667480469,-0.619384766,0.43359375,13.63641221,13.35328244,0.084427481,19.08583291,196.6841757,13.63641221,13.35328244,0.084427481,,,,,,,,,
1124,0.501464844,-0.431396484,0.723388672,-13.4780916,-13.50931298,-0.503358779,19.08962704,-196.8063074,13.4780916,13.50931298,0.503358779,,,,,,,,,
1239,0.309570313,-0.239013672,-0.990966797,-13.37885496,-13.60854962,-0.495725191,19.09010545,-196.841898,13.37885496,13.60854962,0.495725191,,,,,,,,,
1843,0.442138672,-0.377441406,0.793212891,13.43030534,13.5670229,-0.098778626,19.09049421,196.7831449,13.43030534,13.5670229,-0.098778626,,,,,,,,,
1164,0.748779297,-0.697753906,0.124023438,-13.21854962,-13.76122137,-0.594961832,19.09071102,-196.8636688,13.21854962,13.76122137,0.594961832,,,,,,,,,
1130,0.546630859,-0.497070313,0.689941406,-13.3559542,-13.63908397,-0.678931298,19.10149397,-196.9425594,13.3559542,13.63908397,0.678931298,,,,,,,,,
1215,0.580566406,-0.489501953,-0.732177734,-13.21091603,-13.79175573,-0.663664122,19.10971686,-197.0508543,13.21091603,13.79175573,0.663664122,,,,,,,,,
1144,0.666992188,-0.600830078,0.437744141,-13.25671756,-13.7459542,-0.732366412,19.11094393,-197.0468965,13.25671756,13.7459542,0.732366412,,,,,,,,,
1730,0.366699219,-0.297363281,-0.954101563,13.50664122,13.52885496,-0.060610687,19.11708522,197.047267,13.50664122,13.52885496,-0.060610687,,,,,,,,,
1113,0.362304688,-0.328369141,0.85546875,-13.19564885,-13.82992366,-0.297251908,19.11753896,-197.1576535,13.19564885,13.82992366,0.297251908,,,,,,,,,
1183,0.747558594,-0.652587891,-0.208007813,-13.21091603,-13.79175573,-0.923206107,19.12049,-197.1005041,13.21091603,13.79175573,0.923206107,,,,,,,,,
1381,-0.479248047,0.531494141,0.680664063,-13.32541985,-13.70778626,-0.594961832,19.12653125,-197.2232178,13.32541985,13.70778626,0.594961832,,,,,,,,,
1133,0.581298828,-0.525878906,0.635498047,-13.4780916,-13.57801527,-0.343053435,19.13476254,-197.2892198,13.4780916,13.57801527,0.343053435,,,,,,,,,
1112,0.345214844,-0.295410156,0.851318359,-13.33305344,-13.72305344,-0.228549618,19.13490905,-197.3214668,13.33305344,13.72305344,0.228549618,,,,,,,,,
1194,0.704101563,-0.625976563,-0.442382813,-13.1651145,-13.8680916,-0.74,19.13613871,-197.3108147,13.1651145,13.8680916,0.74,,,,,,,,,
1177,0.759033203,-0.681640625,-0.095703125,-13.36358779,-13.6848855,-0.686564885,19.13982604,-197.3406195,13.36358779,13.6848855,0.686564885,,,,,,,,,
1797,0.755371094,-0.676025391,0.105224609,13.59824427,13.49832061,0.061526718,19.16039384,197.492945,13.59824427,13.49832061,0.061526718,,,,,,,,,
1151,0.696289063,-0.623779297,0.331054688,-13.50862595,-13.62381679,-0.823969466,19.20339254,-197.9404604,13.50862595,13.62381679,0.823969466,,,,,,,,,
1750,0.576416016,-0.504394531,-0.742431641,13.45320611,13.72732824,0.107328244,19.22081722,198.183565,13.45320611,13.72732824,0.107328244,,,,,,,,,
1380,-0.499755859,0.551269531,0.578369141,-13.31778626,-13.86045802,-0.373587786,19.22538153,-198.2679407,13.31778626,13.86045802,0.373587786,,,,,,,,,
1084,0.020996094,0.024169922,0.977294922,-13.40938931,-13.76122137,-0.694198473,19.2266702,-198.2380078,13.40938931,13.76122137,0.694198473,,,,,,,,,
1875,0.047119141,0.007568359,0.959960938,13.32343511,13.85709924,0.634045802,19.23369794,198.332776,13.32343511,13.85709924,0.634045802,,,,,,,,,
1105,0.282470703,-0.266845703,0.969238281,-13.2948855,-13.91389313,0.084427481,19.24467538,-198.4171308,13.2948855,13.91389313,-0.084427481,,,,,,,,,
1168,0.748291016,-0.655761719,0.06640625,-13.34832061,-13.84519084,-0.762900763,19.24705146,-198.4451437,13.34832061,13.84519084,0.762900763,,,,,,,,,
1160,0.722412109,-0.671142578,0.149902344,-13.44755725,-13.76122137,-0.541526718,19.24840931,-198.479873,13.44755725,13.76122137,0.541526718,,,,,,,,,
1143,0.647705078,-0.596679688,0.484619141,-13.46282443,-13.75358779,-0.717099237,19.25936265,-198.5648238,13.46282443,13.75358779,0.717099237,,,,,,,,,
1268,-0.071777344,0.153808594,-1.021728516,-13.30251908,-13.92152672,-0.709465649,19.2683487,-198.6802792,13.30251908,13.92152672,0.709465649,,,,,,,,,
1209,0.606445313,-0.5234375,-0.714111328,-13.43229008,-13.76885496,-1.159847328,19.27052229,-198.5467922,13.43229008,13.76885496,1.159847328,,,,,,,,,
1894,-0.203125,0.261230469,0.915039063,13.5219084,13.72732824,0.359236641,19.27201594,198.7196824,13.5219084,13.72732824,0.359236641,,,,,,,,,
1579,-0.456542969,0.479248047,0.68359375,13.67458015,13.58229008,0.023358779,19.27364241,198.6554926,13.67458015,13.58229008,0.023358779,,,,,,,,,
1088,0.081542969,-0.097412109,1.075683594,-13.65366412,-13.60854962,-0.251450382,19.27896247,-198.7468802,13.65366412,13.60854962,0.251450382,,,,,,,,,
1188,0.741210938,-0.667236328,-0.310791016,-13.48572519,-13.77648855,-0.312519084,19.28092552,-198.821264,13.48572519,13.77648855,0.312519084,,,,,,,,,
1282,-0.258056641,0.327636719,-0.985351563,-13.27961832,-13.97496183,-0.343053435,19.28122161,-198.8469927,13.27961832,13.97496183,0.343053435,,,,,,,,,
1218,0.53125,-0.448242188,-0.790283203,-13.3559542,-13.89099237,-0.663664122,19.28163975,-198.8227598,13.3559542,13.89099237,0.663664122,,,,,,,,,
1206,0.628662109,-0.556640625,-0.623779297,-13.3559542,-13.91389313,-0.320152672,19.28938652,-198.9282397,13.3559542,13.91389313,0.320152672,,,,,,,,,
1715,0.1875,-0.122558594,-1.048339844,13.63641221,13.64335878,-0.060610687,19.28980691,198.8248726,13.63641221,13.64335878,-0.060610687,,,,,,,,,
1249,0.174560547,-0.09375,-1.01953125,-13.27198473,-13.99022901,-0.610229008,19.29363796,-198.9580171,13.27198473,13.99022901,0.610229008,,,,,,,,,
1174,0.747558594,-0.663330078,-0.073242188,-13.82160305,-13.42534351,-1.052977099,19.2972879,-198.7233804,13.82160305,13.42534351,1.052977099,,,,,,,,,
1792,0.75390625,-0.692871094,0.006591797,13.65931298,13.63572519,0.206564885,19.30161914,198.981561,13.65931298,13.63572519,0.206564885,,,,,,,,,
1274,-0.153564453,0.215332031,-0.992675781,-13.34832061,-13.94442748,-0.755267176,19.31825948,-199.185519,13.34832061,13.94442748,0.755267176,,,,,,,,,
1162,0.735351563,-0.686767578,0.174316406,-13.62312977,-13.69251908,-0.503358779,19.32170059,-199.2059199,13.62312977,13.69251908,0.503358779,,,,,,,,,
1125,0.506347656,-0.436279297,0.749023438,-13.32541985,-14.00549618,-0.228549618,19.33320906,-199.3786307,13.32541985,14.00549618,0.228549618,,,,,,,,,
1126,0.515625,-0.477294922,0.744140625,-13.31015267,-14.02076336,-0.411755725,19.33679167,-199.4193777,13.31015267,14.02076336,0.411755725,,,,,,,,,
1646,-0.595947266,0.649414063,-0.599121094,13.49137405,13.84946565,-0.373587786,19.33816021,199.2756663,13.49137405,13.84946565,-0.373587786,,,,,,,,,
1839,0.485351563,-0.437744141,0.75390625,13.51427481,13.84183206,0.099694656,19.34533219,199.4717825,13.51427481,13.84183206,0.099694656,,,,,,,,,
1203,0.665527344,-0.584960938,-0.578125,-13.46282443,-13.87572519,-0.678931298,19.3453958,-199.4705507,13.46282443,13.87572519,0.678931298,,,,,,,,,
1397,-0.326416016,0.365722656,0.842285156,-13.49335878,-13.8680916,-0.304885496,19.35168342,-199.5587892,13.49335878,13.8680916,0.304885496,,,,,,,,,
1564,-0.305175781,0.351806641,0.870361328,13.63641221,13.73496183,-0.022442748,19.35462266,199.5169453,13.63641221,13.73496183,-0.022442748,,,,,,,,,
1167,0.745361328,-0.669189453,0.065429688,-13.60022901,-13.76122137,-0.617862595,19.35766507,-199.57876,13.60022901,13.76122137,0.617862595,,,,,,,,,
1283,-0.267089844,0.327392578,-0.926757813,-13.32541985,-14.02839695,-0.732366412,19.36231121,-199.6462025,13.32541985,14.02839695,0.732366412,,,,,,,,,
1857,0.291748047,-0.234619141,0.931640625,13.48374046,13.92580153,0.412671756,19.38838577,199.9425045,13.48374046,13.92580153,0.412671756,,,,,,,,,
1338,-0.650634766,0.716796875,-0.025634766,-13.55442748,-13.85282443,-0.732366412,19.39483461,-199.9601504,13.55442748,13.85282443,0.732366412,,,,,,,,,
1669,-0.392089844,0.462402344,-0.839111328,13.8348855,13.58992366,-0.312519084,19.39556006,199.7868026,13.8348855,13.58992366,-0.312519084,,,,,,,,,
1142,0.65234375,-0.605957031,0.502929688,-13.60022901,-13.82229008,-0.594961832,19.40041009,-200.0308934,13.60022901,13.82229008,0.594961832,,,,,,,,,
1783,0.751953125,-0.677490234,-0.152832031,13.75854962,13.68152672,0.153129771,19.40374473,200.0185093,13.75854962,13.68152672,0.153129771,,,,,,,,,
1823,0.631835938,-0.57421875,0.547607422,13.57534351,13.86473282,0.130229008,19.40458006,200.0825301,13.57534351,13.86473282,0.130229008,,,,,,,,,
1289,-0.335693359,0.398925781,-0.866699219,-13.34832061,-14.08183206,-0.53389313,19.41032455,-200.1703276,13.34832061,14.08183206,0.53389313,,,,,,,,,
1163,0.741943359,-0.672119141,0.137939453,-13.42465649,-14.01312977,-0.701832061,19.41859357,-200.2310175,13.42465649,14.01312977,0.701832061,,,,,,,,,
1818,0.661132813,-0.605712891,0.431640625,13.46847328,13.99450382,0.137862595,19.42330857,200.2950841,13.46847328,13.99450382,0.137862595,,,,,,,,,
1886,-0.096923828,0.146484375,0.953369141,13.56770992,13.90290076,0.160763359,19.42676625,200.3194784,13.56770992,13.90290076,0.160763359,,,,,,,,,
1852,0.337646484,-0.287353516,0.849365234,13.50664122,13.96396947,0.107328244,19.42764318,200.3320569,13.50664122,13.96396947,0.107328244,,,,,,,,,
1777,0.740966797,-0.674804688,-0.242431641,13.67458015,13.80366412,0.114961832,19.43060734,200.32788,13.67458015,13.80366412,0.114961832,,,,,,,,,
1141,0.638427734,-0.587646484,0.5,-13.62312977,-13.82992366,-0.839236641,19.43092307,-200.2973295,13.62312977,13.82992366,0.839236641,,,,,,,,,
1704,0.03125,0.026367188,-1.125488281,13.80435115,13.67389313,-0.190381679,19.43120452,200.2210174,13.80435115,13.67389313,-0.190381679,,,,,,,,,
1824,0.621826172,-0.550048828,0.541015625,13.67458015,13.80366412,0.267633588,19.43211037,200.3570858,13.67458015,13.80366412,0.267633588,,,,,,,,,
1226,0.4375,-0.347167969,-0.897949219,-13.40938931,-14.06656489,-0.39648855,19.43803418,-200.4636275,13.40938931,14.06656489,0.39648855,,,,,,,,,
1095,0.166503906,-0.136474609,0.987548828,-13.74526718,-13.7459542,-0.236183206,19.4406638,-200.421687,13.74526718,13.7459542,0.236183206,,,,,,,,,
1855,0.305908203,-0.244384766,0.918945313,13.67458015,13.82656489,0.099694656,19.44679865,200.4961523,13.67458015,13.82656489,0.099694656,,,,,,,,,
1195,0.683837891,-0.634521484,-0.441650391,-13.26435115,-14.21160305,-0.594961832,19.44907844,-200.5557462,13.26435115,14.21160305,0.594961832,,,,,,,,,
1729,0.361328125,-0.290527344,-0.933349609,13.77381679,13.74259542,-0.411755725,19.46141055,200.4753906,13.77381679,13.74259542,-0.411755725,,,,,,,,,
1862,0.218017578,-0.161376953,0.956298828,13.66694656,13.88763359,0.038625954,19.48469366,200.8867699,13.66694656,13.88763359,0.038625954,,,,,,,,,
1197,0.690429688,-0.630615234,-0.465332031,-13.50099237,-14.03603053,-0.625496183,19.48533278,-200.9297495,13.50099237,14.03603053,0.625496183,,,,,,,,,
1874,0.06640625,0.002685547,0.978271484,13.60587786,13.94870229,0.481374046,19.4914835,200.9942672,13.60587786,13.94870229,0.481374046,,,,,,,,,
1828,0.590576172,-0.526611328,0.610351563,13.81198473,13.7578626,0.038625954,19.49490183,200.9467472,13.81198473,13.7578626,0.038625954,,,,,,,,,
1307,-0.505615234,0.572998047,-0.653320313,-13.60022901,-13.92916031,-1.037709924,19.495245,-200.9144899,13.60022901,13.92916031,1.037709924,,,,,,,,,
1185,0.751708984,-0.705810547,-0.255615234,-13.59259542,-13.97496183,-0.411755725,19.49942951,-201.0829177,13.59259542,13.97496183,0.411755725,,,,,,,,,
1241,0.276123047,-0.200439453,-0.993408203,-13.56969466,-13.9978626,-0.46519084,19.50110696,-201.1016899,13.56969466,13.9978626,0.46519084,,,,,,,,,
1233,0.372802734,-0.298583984,-0.943359375,-13.47045802,-14.08183206,-0.816335878,19.50429793,-201.0917855,13.47045802,14.08183206,0.816335878,,,,,,,,,
1214,0.5625,-0.490966797,-0.734130859,-13.62312977,-13.95969466,-0.678931298,19.51726639,-201.2367561,13.62312977,13.95969466,0.678931298,,,,,,,,,
1149,0.69140625,-0.642089844,0.408203125,-13.69946565,-13.89099237,-0.80870229,19.52662355,-201.2901446,13.69946565,13.89099237,0.80870229,,,,,,,,,
1213,0.580810547,-0.489501953,-0.719726563,-13.56206107,-14.03603053,-0.610229008,19.52721263,-201.3605426,13.56206107,14.03603053,0.610229008,,,,,,,,,
1224,0.472900391,-0.395019531,-0.867919922,-13.53152672,-14.0589313,-0.846870229,19.53133262,-201.3601475,13.53152672,14.0589313,0.846870229,,,,,,,,,
1791,0.749023438,-0.685546875,0.012451172,13.6440458,13.97923664,0.252366412,19.53567843,201.4497867,13.6440458,13.97923664,0.252366412,,,,,,,,,
1107,0.316162109,-0.322265625,0.957519531,-14.00480916,-13.62381679,-0.411755725,19.54258444,-201.3855283,14.00480916,13.62381679,0.411755725,,,,,,,,,
1230,0.401611328,-0.33203125,-0.903076172,-13.39412214,-14.21923664,-0.594961832,19.5433666,-201.534452,13.39412214,14.21923664,0.594961832,,,,,,,,,
1272,-0.120361328,0.201171875,-1.012695313,-13.46282443,-14.13526718,-0.953740458,19.54387476,-201.4633064,13.46282443,14.13526718,0.953740458,,,,,,,,,
1887,-0.100830078,0.159423828,0.952880859,13.59824427,14.04030534,0.351603053,19.54906766,201.5999994,13.59824427,14.04030534,0.351603053,,,,,,,,,
1793,0.753662109,-0.687255859,0.007080078,13.81198473,13.84946565,0.145496183,19.56015823,201.6519625,13.81198473,13.84946565,0.145496183,,,,,,,,,
1744,0.518798828,-0.443847656,-0.782470703,13.80435115,13.86473282,0.015725191,19.56504981,201.687052,13.80435115,13.86473282,0.015725191,,,,,,,,,
1258,0.060302734,0.012451172,-1.043945313,-13.37122137,-14.27267176,-0.587328244,19.56639145,-201.769799,13.37122137,14.27267176,0.587328244,,,,,,,,,
1858,0.261962891,-0.218505859,0.904541016,13.78145038,13.89526718,0.183664122,19.57142195,201.7847928,13.78145038,13.89526718,0.183664122,,,,,,,,,
1807,0.719726563,-0.650146484,0.276123047,13.98755725,13.69679389,0.008091603,19.57687376,201.7313186,13.98755725,13.69679389,0.008091603,,,,,,,,,
1172,0.774658203,-0.691650391,0.047607422,-13.49335878,-14.1810687,-0.442290076,19.57981259,-201.9247096,13.49335878,14.1810687,0.442290076,,,,,,,,,
1836,0.520019531,-0.463378906,0.745117188,13.65167939,14.04030534,0.114961832,19.58345579,201.9342299,13.65167939,14.04030534,0.114961832,,,,,,,,,
1844,0.433349609,-0.368896484,0.801025391,13.68984733,14.00977099,0.206564885,19.58898344,201.9945673,13.68984733,14.00977099,0.206564885,,,,,,,,,
1145,0.663330078,-0.611083984,0.458007813,-13.81396947,-13.89099237,-0.495725191,19.59671311,-202.0434859,13.81396947,13.89099237,0.495725191,,,,,,,,,
1221,0.504150391,-0.439208984,-0.83984375,-13.52389313,-14.16580153,-0.709465649,19.59767741,-202.0785479,13.52389313,14.16580153,0.709465649,,,,,,,,,
1700,-0.008544922,0.055908203,-1.067626953,14.13259542,13.58229008,0.023358779,19.60126023,201.908345,14.13259542,13.58229008,0.023358779,,,,,,,,,
1860,0.237548828,-0.1875,0.924072266,13.63641221,14.07847328,0.282900763,19.60191779,202.1432492,13.63641221,14.07847328,0.282900763,,,,,,,,,
1104,0.259521484,-0.239746094,0.950195313,-13.49335878,-14.22687023,-0.052977099,19.60809461,-202.1926205,13.49335878,14.22687023,0.052977099,,,,,,,,,
1774,0.730957031,-0.654785156,-0.322021484,13.55244275,14.17770992,-0.037709924,19.61319926,202.2273964,13.55244275,14.17770992,-0.037709924,,,,,,,,,
1808,0.716308594,-0.641601563,0.292236328,13.88832061,13.84946565,0.099694656,19.61384937,202.1853429,13.88832061,13.84946565,0.099694656,,,,,,,,,
1132,0.570800781,-0.500732422,0.638671875,-13.74526718,-13.97496183,-0.862137405,19.62078512,-202.2533588,13.74526718,13.97496183,0.862137405,,,,,,,,,
1382,-0.466308594,0.526855469,0.692382813,-13.61549618,-14.12763359,-0.350687023,19.62383114,-202.3751635,13.61549618,14.12763359,0.350687023,,,,,,,,,
1091,0.082275391,-0.028808594,0.937255859,-13.70709924,-14.04366412,-0.251450382,19.62580696,-202.3790432,13.70709924,14.04366412,0.251450382,,,,,,,,,
1800,0.731201172,-0.678710938,0.135742188,13.8348855,13.91816794,0.290534351,19.62661116,202.3559291,13.8348855,13.91816794,0.290534351,,,,,,,,,
1179,0.749267578,-0.666015625,-0.142578125,-13.49335878,-14.24977099,-0.53389313,19.63190633,-202.4558115,13.49335878,14.24977099,0.53389313,,,,,,,,,
1225,0.447753906,-0.364746094,-0.872070313,-13.69183206,-14.0589313,-0.549160305,19.63215198,-202.4416946,13.69183206,14.0589313,0.549160305,,,,,,,,,
1222,0.501464844,-0.407470703,-0.833984375,-13.33305344,-14.39480916,-0.709465649,19.6337512,-202.435121,13.33305344,14.39480916,0.709465649,,,,,,,,,
1367,-0.59375,0.628173828,0.436523438,-13.56969466,-14.19633588,-0.312519084,19.64103443,-202.5561553,13.56969466,14.19633588,0.312519084,,,,,,,,,
1826,0.606933594,-0.552490234,0.601318359,13.7051145,14.07083969,0.008091603,19.64226969,202.5215424,13.7051145,14.07083969,0.008091603,,,,,,,,,
1779,0.741943359,-0.6640625,-0.261962891,13.56007634,14.21587786,0.046259542,19.6460936,202.5829951,13.56007634,14.21587786,0.046259542,,,,,,,,,
1765,0.685302734,-0.625488281,-0.500244141,13.91122137,13.87236641,0.076793893,19.64613263,202.5147974,13.91122137,13.87236641,0.076793893,,,,,,,,,
1277,-0.191894531,0.254638672,-0.987304688,-13.55442748,-14.21160305,-0.572061069,19.64737691,-202.6115052,13.55442748,14.21160305,0.572061069,,,,,,,,,
1895,-0.212402344,0.253173828,0.902099609,13.75091603,14.02503817,0.572977099,19.64987761,202.6125033,13.75091603,14.02503817,0.572977099,,,,,,,,,
1664,-0.419433594,0.492675781,-0.643798828,13.9570229,13.83419847,-0.106412214,19.65184112,202.5197144,13.9570229,13.83419847,-0.106412214,,,,,,,,,
1337,-0.647460938,0.738037109,-0.08984375,-13.67656489,-14.10473282,-0.488091603,19.65273896,-202.6639695,13.67656489,14.10473282,0.488091603,,,,,,,,,
1334,-0.65625,0.716796875,-0.1875,-13.71473282,-14.06656489,-0.625496183,19.65587418,-202.6760044,13.71473282,14.06656489,0.625496183,,,,,,,,,
1110,0.326904297,-0.223144531,0.836425781,-13.6689313,-14.12,-0.518625954,19.6591723,-202.729725,13.6689313,14.12,0.518625954,,,,,,,,,
1842,0.454101563,-0.405029297,0.772460938,13.85015267,13.97160305,0.05389313,19.6732134,202.8185385,13.85015267,13.97160305,0.05389313,,,,,,,,,
1298,-0.434814453,0.483398438,-0.771240234,-13.51625954,-14.28030534,-0.678931298,19.67428119,-202.8744567,13.51625954,14.28030534,0.678931298,,,,,,,,,
1784,0.749511719,-0.681640625,-0.146484375,13.80435115,14.03267176,0.000458015,19.68440975,202.9395454,13.80435115,14.03267176,0.000458015,,,,,,,,,
1138,0.616455078,-0.574462891,0.556396484,-13.68419847,-14.12763359,-0.846870229,19.68665812,-202.9580101,13.68419847,14.12763359,0.846870229,,,,,,,,,
1749,0.560302734,-0.490966797,-0.735839844,13.87305344,13.97160305,0.008091603,19.6892704,202.9724194,13.87305344,13.97160305,0.008091603,,,,,,,,,
1180,0.755126953,-0.687255859,-0.171875,-13.62312977,-14.23450382,-0.541526718,19.71050519,-203.2647848,13.62312977,14.23450382,0.541526718,,,,,,,,,
1845,0.421386719,-0.370361328,0.808349609,13.72038168,14.15480916,0.114961832,19.71346525,203.2781218,13.72038168,14.15480916,0.114961832,,,,,,,,,
1255,0.097412109,-0.024658203,-1.046386719,-13.72236641,-14.12763359,-0.862137405,19.71386952,-203.2320017,13.72236641,14.12763359,0.862137405,,,,,,,,,
1319,-0.592529297,0.65234375,-0.453125,-13.65366412,-14.21160305,-0.60259542,19.71687923,-203.3221311,13.65366412,14.21160305,0.60259542,,,,,,,,,
1565,-0.312255859,0.3671875,0.828369141,13.79671756,14.08610687,-0.037709924,19.71723216,203.2774797,13.79671756,14.08610687,-0.037709924,,,,,,,,,
1816,0.677001953,-0.612304688,0.454833984,13.92648855,13.95633588,0.237099237,19.71757111,203.2815989,13.92648855,13.95633588,0.237099237,,,,,,,,,
1626,-0.660400391,0.717773438,-0.110839844,14.06389313,13.8189313,-0.205648855,19.71796753,203.145601,14.06389313,13.8189313,-0.205648855,,,,,,,,,
1271,-0.112548828,0.175292969,-1.021972656,-13.45519084,-14.37954198,-1.01480916,19.71910814,-203.2468313,13.45519084,14.37954198,1.01480916,,,,,,,,,
1287,-0.307128906,0.379638672,-0.934326172,-13.54679389,-14.31083969,-0.778167939,19.72108777,-203.3385543,13.54679389,14.31083969,0.778167939,,,,,,,,,
1863,0.198974609,-0.156494141,0.934570313,13.76618321,14.1319084,0.229465649,19.72995919,203.4541186,13.76618321,14.1319084,0.229465649,,,,,,,,,
1181,0.734863281,-0.692382813,-0.210205078,-13.69183206,-14.21160305,-0.572061069,19.74242083,-203.5873609,13.69183206,14.21160305,0.572061069,,,,,,,,,
1627,-0.645996094,0.721679688,-0.143066406,13.9570229,13.96396947,-0.236183206,19.74453631,203.4649822,13.9570229,13.96396947,-0.236183206,,,,,,,,,
1764,0.679199219,-0.611083984,-0.511474609,13.81961832,14.10137405,0.145496183,19.74466433,203.5892978,13.81961832,14.10137405,0.145496183,,,,,,,,,
1207,0.623779297,-0.556884766,-0.636474609,-13.75290076,-14.15053435,-0.701832061,19.74518853,-203.5893853,13.75290076,14.15053435,0.701832061,,,,,,,,,
1236,0.332763672,-0.259277344,-0.971923828,-13.56206107,-14.34137405,-0.587328244,19.74713813,-203.6387327,13.56206107,14.34137405,0.587328244,,,,,,,,,
1187,0.734130859,-0.650146484,-0.313476563,-13.76816794,-14.15053435,-0.510992366,19.74996668,-203.6613065,13.76816794,14.15053435,0.510992366,,,,,,,,,
1787,0.759277344,-0.694580078,-0.078857422,13.85778626,14.07083969,-0.198015267,19.7500881,203.5663987,13.85778626,14.07083969,-0.198015267,,,,,,,,,
1111,0.337158203,-0.291748047,0.858886719,-13.53916031,-14.37954198,-0.358320611,19.75369543,-203.7176028,13.53916031,14.37954198,0.358320611,,,,,,,,,
1244,0.234619141,-0.170410156,-1.014648438,-13.50099237,-14.40244275,-0.74,19.75486654,-203.6907389,13.50099237,14.40244275,0.74,,,,,,,,,
1253,0.123291016,-0.055419922,-1.051025391,-13.69946565,-14.20396947,-0.953740458,19.75696658,-203.6575253,13.69946565,14.20396947,0.953740458,,,,,,,,,
1802,0.745117188,-0.678466797,0.211425781,13.98755725,13.95633588,0.282900763,19.76135375,203.7240743,13.98755725,13.95633588,0.282900763,,,,,,,,,
1881,-0.025146484,0.063720703,0.996582031,13.97229008,13.97160305,0.473740458,19.76499461,203.7662816,13.97229008,13.97160305,0.473740458,,,,,,,,,
1885,-0.078857422,0.130859375,0.975097656,13.79671756,14.15480916,0.26,19.76804588,203.8480094,13.79671756,14.15480916,0.26,,,,,,,,,
1093,0.136474609,-0.113037109,1.030029297,-13.6689313,-14.28030534,-0.175114504,19.76859804,-203.8623618,13.6689313,14.28030534,0.175114504,,,,,,,,,
1827,0.590820313,-0.538085938,0.593017578,13.72801527,14.23877863,0.19129771,19.77973242,203.9746459,13.72801527,14.23877863,0.19129771,,,,,,,,,
1219,0.528320313,-0.449462891,-0.786132813,-13.63839695,-14.31847328,-0.488091603,19.78036354,-203.9906982,13.63839695,14.31847328,0.488091603,,,,,,,,,
1176,0.760009766,-0.674804688,-0.091552734,-13.73763359,-14.22687023,-0.495725191,19.78312808,-204.0121718,13.73763359,14.22687023,0.495725191,,,,,,,,,
1257,0.07421875,0.007080078,-1.066894531,-13.63839695,-14.31847328,-0.633129771,19.78447375,-204.0184436,13.63839695,14.31847328,0.633129771,,,,,,,,,
1748,0.553955078,-0.481933594,-0.724853516,13.53717557,14.42961832,-0.007175573,19.78557704,204.0079301,13.53717557,14.42961832,-0.007175573,,,,,,,,,
1840,0.479248047,-0.408935547,0.748535156,13.84251908,14.13954198,-0.037709924,19.78745573,204.0022148,13.84251908,14.13954198,-0.037709924,,,,,,,,,
1146,0.66796875,-0.626708984,0.439453125,-13.92847328,-14.03603053,-0.923206107,19.79557604,-204.0226963,13.92847328,14.03603053,0.923206107,,,,,,,,,
1709,0.107666016,-0.034912109,-1.033203125,13.94938931,14.04793893,-0.129312977,19.79764562,204.058919,13.94938931,14.04793893,-0.129312977,,,,,,,,,
1768,0.698486328,-0.625976563,-0.440429688,14.01045802,13.98687023,0.183664122,19.79795962,204.0959903,14.01045802,13.98687023,0.183664122,,,,,,,,,
1366,-0.593261719,0.649658203,0.416015625,-13.75290076,-14.22687023,-0.694198473,19.79969766,-204.1585677,13.75290076,14.22687023,0.694198473,,,,,,,,,
1371,-0.561767578,0.611083984,0.495361328,-13.92847328,-14.06656489,-0.480458015,19.80155185,-204.1662567,13.92847328,14.06656489,0.480458015,,,,,,,,,
1391,-0.384521484,0.432128906,0.779296875,-13.89793893,-14.09709924,-0.495725191,19.80218818,-204.1805775,13.89793893,14.09709924,0.495725191,,,,,,,,,
1302,-0.46484375,0.531005859,-0.718505859,-13.69946565,-14.27267176,-0.94610687,19.8060505,-204.1696434,13.69946565,14.27267176,0.94610687,,,,,,,,,
1131,0.569091797,-0.515869141,0.672119141,-13.96664122,-14.03603053,-0.495725191,19.80714426,-204.2119912,13.96664122,14.03603053,0.495725191,,,,,,,,,
1878,0.008544922,0.045410156,0.973388672,13.81198473,14.20061069,0.343969466,19.81278832,204.3148866,13.81198473,14.20061069,0.343969466,,,,,,,,,
1279,-0.212402344,0.288574219,-0.949951172,-13.7910687,-14.21160305,-0.625496183,19.81298773,-204.3023676,13.7910687,14.21160305,0.625496183,,,,,,,,,
1803,0.732177734,-0.689208984,0.213378906,14.0180916,14.0021374,0.282900763,19.81531673,204.2833168,14.0180916,14.0021374,0.282900763,,,,,,,,,
1745,0.537597656,-0.467529297,-0.780761719,14.17076336,13.84946565,-0.205648855,19.81566361,204.132857,14.17076336,13.84946565,-0.205648855,,,,,,,,,
1240,0.293457031,-0.226318359,-0.987304688,-13.68419847,-14.31847328,-0.640763359,19.81632011,-204.3451892,13.68419847,14.31847328,0.640763359,,,,,,,,,
1856,0.295166016,-0.243164063,0.926269531,13.8348855,14.1929771,0.313435115,19.82278732,204.4146238,13.8348855,14.1929771,0.313435115,,,,,,,,,
1234,0.361083984,-0.265625,-0.941162109,-13.45519084,-14.54748092,-0.579694656,19.82441443,-204.4190089,13.45519084,14.54748092,0.579694656,,,,,,,,,
1238,0.319091797,-0.239990234,-0.974609375,-13.63076336,-14.37954198,-0.801068702,19.8295398,-204.4528699,13.63076336,14.37954198,0.801068702,,,,,,,,,
1232,0.389892578,-0.310791016,-0.934326172,-13.75290076,-14.27267176,-0.60259542,19.82963842,-204.4834299,13.75290076,14.27267176,0.60259542,,,,,,,,,
1838,0.497802734,-0.445068359,0.756103516,13.6440458,14.39145038,0.137862595,19.83161204,204.5093531,13.6440458,14.39145038,0.137862595,,,,,,,,,
1223,0.482421875,-0.410888672,-0.843505859,-13.73763359,-14.29557252,-0.640763359,19.83674741,-204.5534958,13.73763359,14.29557252,0.640763359,,,,,,,,,
1798,0.745361328,-0.692382813,0.101318359,13.72038168,14.33038168,-0.045343511,19.83962622,204.5599341,13.72038168,14.33038168,-0.045343511,,,,,,,,,
1608,-0.645507813,0.707519531,0.201416016,14.07916031,13.97923664,0.038625954,19.84044616,204.4991084,14.07916031,13.97923664,0.038625954,,,,,,,,,
1264,-0.021728516,0.103515625,-1.037597656,-13.64603053,-14.38717557,-0.694198473,19.84154434,-204.5979186,13.64603053,14.38717557,0.694198473,,,,,,,,,
1714,0.167480469,-0.103027344,-1.028076172,14.10206107,13.95633588,-0.213282443,19.84169667,204.4423687,14.10206107,13.95633588,-0.213282443,,,,,,,,,
1119,0.431640625,-0.415527344,0.759521484,-13.91320611,-14.12,-0.885038168,19.84275678,-204.5346735,13.91320611,14.12,0.885038168,,,,,,,,,
1888,-0.114990234,0.153076172,0.960205078,13.80435115,14.24641221,0.626412214,19.84723567,204.6570887,13.80435115,14.24641221,0.626412214,,,,,,,,,
1184,0.752441406,-0.672363281,-0.219238281,-13.7910687,-14.26503817,-0.480458015,19.84731039,-204.6740721,13.7910687,14.26503817,0.480458015,,,,,,,,,
1196,0.702148438,-0.630126953,-0.447265625,-13.63839695,-14.41007634,-0.549160305,19.84836891,-204.6871517,13.63839695,14.41007634,0.549160305,,,,,,,,,
1175,0.754638672,-0.700927734,-0.078613281,-13.60022901,-14.46351145,-0.129312977,19.853869,-204.7352148,13.60022901,14.46351145,0.129312977,,,,,,,,,
1231,0.404296875,-0.314697266,-0.905517578,-13.50862595,-14.53984733,-0.564427481,19.85468997,-204.7385235,13.50862595,14.53984733,0.564427481,,,,,,,,,
1384,-0.457519531,0.507324219,0.688476563,-13.92847328,-14.14290076,-0.46519084,19.85548822,-204.7339789,13.92847328,14.14290076,0.46519084,,,,,,,,,
1260,0.028564453,0.030761719,-1.057373047,-13.67656489,-14.3719084,-0.869770992,19.85841584,-204.7342335,13.67656489,14.3719084,0.869770992,,,,,,,,,
1166,0.747558594,-0.693115234,0.081542969,-13.83687023,-14.23450382,-0.801068702,19.86760649,-204.8324323,13.83687023,14.23450382,0.801068702,,,,,,,,,
1850,0.365722656,-0.321533203,0.876220703,13.97229008,14.12427481,0.389770992,19.87138521,204.8915039,13.97229008,14.12427481,0.389770992,,,,,,,,,
1346,-0.665771484,0.719970703,0.042236328,-13.76816794,-14.31847328,-0.701832061,19.8764608,-204.9532277,13.76816794,14.31847328,0.701832061,,,,,,,,,
1189,0.750244141,-0.657958984,-0.321044922,-13.94374046,-14.15053435,-0.67129771,19.87752905,-204.9388993,13.94374046,14.15053435,0.67129771,,,,,,,,,
1323,-0.62109375,0.667480469,-0.363037109,-13.50099237,-14.57038168,-0.755267176,19.87821032,-204.9490735,13.50099237,14.57038168,0.755267176,,,,,,,,,
1341,-0.668701172,0.759033203,-0.103515625,-14.21091603,-13.88335878,-0.717099237,19.87994006,-204.8479087,14.21091603,13.88335878,0.717099237,,,,,,,,,
1280,-0.221191406,0.290771484,-0.948974609,-13.6078626,-14.48641221,-0.541526718,19.88273911,-205.0394774,13.6078626,14.48641221,0.541526718,,,,,,,,,
1199,0.6953125,-0.605712891,-0.482666016,-13.6078626,-14.48641221,-0.541526718,19.88273911,-205.0394774,13.6078626,14.48641221,0.541526718,,,,,,,,,
1780,0.728027344,-0.666992188,-0.267578125,13.72801527,14.38381679,0.061526718,19.88357046,205.0340422,13.72801527,14.38381679,0.061526718,,,,,,,,,
1399,-0.293701172,0.366455078,0.818115234,-13.73,-14.3719084,-0.579694656,19.88468498,-205.058242,13.73,14.3719084,0.579694656,,,,,,,,,
1250,0.165527344,-0.079101563,-1.026367188,-13.77580153,-14.32610687,-0.732366412,19.88834851,-205.0703474,13.77580153,14.32610687,0.732366412,,,,,,,,,
1681,-0.250244141,0.34375,-0.985595703,14.09442748,14.03267176,-0.289618321,19.89101911,204.9441943,14.09442748,14.03267176,-0.289618321,,,,,,,,,
1208,0.6328125,-0.550048828,-0.635498047,-13.85977099,-14.26503817,-0.53389313,19.89647224,-205.172222,13.85977099,14.26503817,0.53389313,,,,,,,,,
1169,0.756103516,-0.689453125,0.05078125,-13.83687023,-14.28030534,-0.701832061,19.89669989,-205.1558342,13.83687023,14.28030534,0.701832061,,,,,,,,,
1237,0.321533203,-0.217285156,-0.968994141,-13.56206107,-14.54748092,-0.663664122,19.89972742,-205.1940709,13.56206107,14.54748092,0.663664122,,,,,,,,,
1775,0.736083984,-0.662841797,-0.288085938,14.13259542,14.00977099,0.008091603,19.8998493,205.1010238,14.13259542,14.00977099,0.008091603,,,,,,,,,
1799,0.743896484,-0.676269531,0.135498047,13.91122137,14.23114504,0.252366412,19.90254401,205.2304049,13.91122137,14.23114504,0.252366412,,,,,,,,,
1347,-0.655761719,0.719238281,0.073730469,-13.69946565,-14.42534351,-0.625496183,19.90369664,-205.2495968,13.69946565,14.42534351,0.625496183,,,,,,,,,
1689,-0.153808594,0.224365234,-1.013916016,14.16312977,13.98687023,-0.136946565,19.90591716,205.1189423,14.16312977,13.98687023,-0.136946565,,,,,,,,,
1847,0.393310547,-0.338867188,0.829345703,13.9570229,14.1929771,0.130229008,19.90618112,205.2470042,13.9570229,14.1929771,0.130229008,,,,,,,,,
1376,-0.522705078,0.5625,0.576416016,-13.95137405,-14.19633588,-0.343053435,19.90714635,-205.2727068,13.95137405,14.19633588,0.343053435,,,,,,,,,
1178,0.755371094,-0.654052734,-0.113525391,-13.74526718,-14.38717557,-0.633129771,19.90788899,-205.291021,13.74526718,14.38717557,0.633129771,,,,,,,,,
1868,0.144287109,-0.098144531,0.969238281,13.77381679,14.36854962,0.427938931,19.90870109,205.3152928,13.77381679,14.36854962,0.427938931,,,,,,,,,
1771,0.705566406,-0.639404297,-0.378417969,14.09442748,14.07083969,-0.060610687,19.91595063,205.2733243,14.09442748,14.07083969,-0.060610687,,,,,,,,,
1216,0.555419922,-0.480957031,-0.753417969,-13.7910687,-14.34900763,-0.747633588,19.91598735,-205.3528892,13.7910687,14.34900763,0.747633588,,,,,,,,,
1767,0.697265625,-0.623291016,-0.440185547,13.96465649,14.20061069,0.015725191,19.91655648,205.3363784,13.96465649,14.20061069,0.015725191,,,,,,,,,
1263,-0.010498047,0.086425781,-1.041259766,-13.64603053,-14.4940458,-0.625496183,19.91689631,-205.3836758,13.64603053,14.4940458,0.625496183,,,,,,,,,
1254,0.1171875,-0.043701172,-1.051757813,-14.03534351,-14.12763359,-0.335419847,19.91716357,-205.3540243,14.03534351,14.12763359,0.335419847,,,,,,,,,
1883,-0.053466797,0.111816406,0.966064453,13.97229008,14.1929771,0.39740458,19.92042719,205.4065427,13.97229008,14.1929771,0.39740458,,,,,,,,,
1898,-0.244873047,0.285888672,0.901611328,14.07916031,14.08610687,0.504274809,19.92223518,205.3870858,14.07916031,14.08610687,0.504274809,,,,,,,,,
1128,0.524902344,-0.463134766,0.673339844,-13.79870229,-14.35664122,-0.640763359,19.92304971,-205.4437236,13.79870229,14.35664122,0.640763359,,,,,,,,,
1614,-0.661621094,0.715087891,0.072509766,14.14022901,14.04030534,-0.144580153,19.9272967,205.3542893,14.14022901,14.04030534,-0.144580153,,,,,,,,,
1292,-0.364990234,0.436767578,-0.854492188,-13.62312977,-14.53221374,-0.694198473,19.93130233,-205.5194972,13.62312977,14.53221374,0.694198473,,,,,,,,,
1583,-0.488037109,0.530761719,0.620361328,14.22419847,13.96396947,0.267633588,19.9346907,205.4588584,14.22419847,13.96396947,0.267633588,,,,,,,,,
1212,0.576904297,-0.505615234,-0.707275391,-13.76053435,-14.41770992,-0.457557252,19.93569722,-205.5941199,13.76053435,14.41770992,0.457557252,,,,,,,,,
1731,0.379638672,-0.311035156,-0.954345703,14.10969466,14.08610687,-0.052977099,19.93751982,205.4973416,14.10969466,14.08610687,-0.052977099,,,,,,,,,
1394,-0.363037109,0.409667969,0.804931641,-13.94374046,-14.24977099,-0.213282443,19.93813835,-205.5931176,13.94374046,14.24977099,0.213282443,,,,,,,,,
1794,0.760498047,-0.687255859,0.048828125,14.03335878,14.16244275,0.206564885,19.93872143,205.575492,14.03335878,14.16244275,0.206564885,,,,,,,,,
1390,-0.410400391,0.447509766,0.755371094,-13.90557252,-14.28793893,-0.289618321,19.9397599,-205.6219708,13.90557252,14.28793893,0.289618321,,,,,,,,,
1580,-0.479003906,0.544921875,0.639160156,14.16312977,14.03267176,-0.388854962,19.94144753,205.4131384,14.16312977,14.03267176,-0.388854962,,,,,,,,,
1127,0.525390625,-0.471679688,0.710205078,-13.93610687,-14.23450382,-0.984274809,19.94504877,-205.5722639,13.93610687,14.23450382,0.984274809,,,,,,,,,
1735,0.425292969,-0.357666016,-0.8984375,13.94938931,14.26167939,0.107328244,19.94974888,205.7019876,13.94938931,14.26167939,0.107328244,,,,,,,,,
1357,-0.638427734,0.703857422,0.275878906,-14.02770992,-14.1810687,-0.480458015,19.95269894,-205.7270055,14.02770992,14.1810687,0.480458015,,,,,,,,,
1734,0.418212891,-0.346191406,-0.903564453,14.12496183,14.09374046,0.092061069,19.95386033,205.6905797,14.12496183,14.09374046,0.092061069,,,,,,,,,
1772,0.725585938,-0.660644531,-0.361083984,13.8959542,14.32274809,0.015725191,19.95592401,205.7614789,13.8959542,14.32274809,0.015725191,,,,,,,,,
1295,-0.393798828,0.457763672,-0.812255859,-13.92847328,-14.28793893,-0.442290076,19.9585367,-205.8138192,13.92847328,14.28793893,0.442290076,,,,,,,,,
1243,0.254638672,-0.176025391,-1.016357422,-13.60022901,-14.59328244,-0.709465649,19.96079816,-205.8162893,13.60022901,14.59328244,0.709465649,,,,,,,,,
1567,-0.340576172,0.383789063,0.83203125,14.29290076,13.93343511,-0.182748092,19.9614885,205.6323722,14.29290076,13.93343511,-0.182748092,,,,,,,,,
1350,-0.650390625,0.712890625,0.119873047,-13.75290076,-14.45587786,-0.686564885,19.96462009,-205.8690357,13.75290076,14.45587786,0.686564885,,,,,,,,,
1869,0.127929688,-0.088867188,0.994628906,14.04099237,14.1929771,0.351603053,19.96781636,205.8857088,14.04099237,14.1929771,0.351603053,,,,,,,,,
1217,0.539550781,-0.453857422,-0.775878906,-13.68419847,-14.52458015,-0.831603053,19.97278849,-205.9224317,13.68419847,14.52458015,0.831603053,,,,,,,,,
1786,0.762939453,-0.683837891,-0.107666016,14.10969466,14.13954198,0.076793893,19.97538556,205.9216164,14.10969466,14.13954198,0.076793893,,,,,,,,,
1587,-0.523193359,0.538330078,0.622802734,14.11732824,14.13954198,-0.190381679,19.98153772,205.9247205,14.11732824,14.13954198,-0.190381679,,,,,,,,,
1785,0.748535156,-0.687988281,-0.135498047,14.06389313,14.20061069,-0.022442748,19.98626872,206.0338616,14.06389313,14.20061069,-0.022442748,,,,,,,,,
1884,-0.063720703,0.103027344,0.993896484,13.97992366,14.26931298,0.634045802,19.98633465,206.0766685,13.97992366,14.26931298,0.634045802,,,,,,,,,
1075,-0.112548828,0.180175781,0.988525391,-14.30251908,-13.96732824,-0.320152672,19.99376923,-206.0502512,14.30251908,13.96732824,0.320152672,,,,,,,,,
1385,-0.454101563,0.494384766,0.711669922,-14.07351145,-14.19633588,-0.434656489,19.99471438,-206.1576575,14.07351145,14.19633588,0.434656489,,,,,,,,,
1393,-0.370849609,0.410888672,0.790527344,-13.86740458,-14.39480916,-0.633129771,19.99790724,-206.2155126,13.86740458,14.39480916,0.633129771,,,,,,,,,
1200,0.689208984,-0.633300781,-0.518310547,-13.94374046,-14.32610687,-0.518625954,19.99835515,-206.2221718,13.94374046,14.32610687,0.518625954,,,,,,,,,
1736,0.438232422,-0.371582031,-0.88671875,13.92648855,14.35328244,-0.01480916,19.99910047,206.2007516,13.92648855,14.35328244,-0.01480916,,,,,,,,,
1252,0.125732422,-0.061035156,-1.049072266,-13.73,-14.53221374,-0.587328244,20.00107724,-206.258052,13.73,14.53221374,0.587328244,,,,,,,,,
1220,0.517089844,-0.439941406,-0.803466797,-13.90557252,-14.3719084,-0.442290076,20.00280777,-206.2788836,13.90557252,14.3719084,0.442290076,,,,,,,,,
1294,-0.383544922,0.461914063,-0.820068359,-13.86740458,-14.41007634,-0.549160305,20.00641864,-206.3135779,13.86740458,14.41007634,0.549160305,,,,,,,,,
1893,-0.185791016,0.206787109,0.998291016,13.97992366,14.30748092,0.351603053,20.00664641,206.3079593,13.97992366,14.30748092,0.351603053,,,,,,,,,
1743,0.519042969,-0.441894531,-0.792480469,14.17839695,14.11664122,0.084427481,20.00783915,206.2398117,14.17839695,14.11664122,0.084427481,,,,,,,,,
1186,0.742431641,-0.661865234,-0.276611328,-13.78343511,-14.4940458,-0.541526718,20.00884051,-206.3434684,13.78343511,14.4940458,0.541526718,,,,,,,,,
1733,0.396728516,-0.334716797,-0.916015625,14.18603053,14.10900763,-0.289618321,20.00978354,206.1654075,14.18603053,14.10900763,-0.289618321,,,,,,,,,
1801,0.733886719,-0.665039063,0.156494141,14.06389313,14.23114504,0.290534351,20.0100722,206.3219905,14.06389313,14.23114504,0.290534351,,,,,,,,,
1841,0.461914063,-0.414306641,0.782958984,13.96465649,14.33038168,0.343969466,20.01224088,206.3692634,13.96465649,14.33038168,0.343969466,,,,,,,,,
1762,0.689453125,-0.603027344,-0.526367188,14.10206107,14.20061069,0.069160305,20.01325195,206.3224561,14.10206107,14.20061069,0.069160305,,,,,,,,,
1211,0.599609375,-0.500488281,-0.659179688,-13.86740458,-14.42534351,-0.381221374,20.01351481,-206.3955802,13.86740458,14.42534351,0.381221374,,,,,,,,,
1265,-0.030761719,0.096435547,-1.047607422,-13.83687023,-14.45587786,-0.640763359,20.02103794,-206.4566302,13.83687023,14.45587786,0.640763359,,,,,,,,,
1877,0.025390625,0.026855469,0.990478516,13.94175573,14.36854962,0.359236641,20.02390626,206.4948627,13.94175573,14.36854962,0.359236641,,,,,,,,,
1396,-0.341796875,0.380615234,0.806396484,-13.92083969,-14.39480916,-0.281984733,20.0269774,-206.5278388,13.92083969,14.39480916,0.281984733,,,,,,,,,
1613,-0.667724609,0.703125,0.126464844,14.34633588,13.97923664,-0.220916031,20.03210458,206.3469558,14.34633588,13.97923664,-0.220916031,,,,,,,,,
1763,0.686523438,-0.605957031,-0.499023438,14.09442748,14.24641221,0.114961832,20.04061783,206.6193892,14.09442748,14.24641221,0.114961832,,,,,,,,,
1262,0.006835938,0.066162109,-1.038085938,-13.82160305,-14.50167939,-0.594961832,20.04219039,-206.6818257,13.82160305,14.50167939,0.594961832,,,,,,,,,
1165,0.747314453,-0.699462891,0.118896484,-13.9819084,-14.35664122,-0.488091603,20.0460755,-206.7156588,13.9819084,14.35664122,0.488091603,,,,,,,,,
1867,0.154052734,-0.102783203,0.969238281,14.0180916,14.33038168,0.130229008,20.04703696,206.7078748,14.0180916,14.33038168,0.130229008,,,,,,,,,
1205,0.63671875,-0.5703125,-0.595703125,-14.0429771,-14.30320611,-0.381221374,20.04824782,-206.7294785,14.0429771,14.30320611,0.381221374,,,,,,,,,
1355,-0.644775391,0.695556641,0.217529297,-13.91320611,-14.42534351,-0.526259542,20.04856076,-206.7486109,13.91320611,14.42534351,0.526259542,,,,,,,,,
1256,0.084228516,-0.007324219,-1.045654297,-13.87503817,-14.44824427,-0.869770992,20.0505598,-206.7144456,13.87503817,14.44824427,0.869770992,,,,,,,,,
1879,-0.007324219,0.063232422,0.966552734,14.17076336,14.18534351,0.275267176,20.05268752,206.7356832,14.17076336,14.18534351,0.275267176,,,,,,,,,
1754,0.608154297,-0.541015625,-0.657470703,14.16312977,14.20061069,0.252366412,20.05779842,206.7912166,14.16312977,14.20061069,0.252366412,,,,,,,,,
1204,0.628662109,-0.614746094,-0.611083984,-14.0429771,-14.31083969,-0.724732824,20.06316466,-206.8522558,14.0429771,14.31083969,0.724732824,,,,,,,,,
1317,-0.581542969,0.649169922,-0.502197266,-13.85977099,-14.50167939,-0.53389313,20.06681337,-206.9412144,13.85977099,14.50167939,0.53389313,,,,,,,,,
1109,0.334228516,-0.204589844,0.834960938,-14.08877863,-14.25740458,-0.969007634,20.06754206,-206.8248203,14.08877863,14.25740458,0.969007634,,,,,,,,,
1813,0.695068359,-0.620361328,0.354003906,13.82725191,14.54412214,0.038625954,20.0680312,206.9327958,13.82725191,14.54412214,0.038625954,,,,,,,,,
1882,-0.046386719,0.104736328,0.966064453,14.02572519,14.35328244,0.32870229,20.07101714,206.9712493,14.02572519,14.35328244,0.32870229,,,,,,,,,
1866,0.170654297,-0.115478516,0.963623047,14.0180916,14.36854962,0.176030534,20.07468797,207.0019579,14.0180916,14.36854962,0.176030534,,,,,,,,,
1343,-0.657470703,0.718261719,0.040527344,-14.01244275,-14.3719084,-0.373587786,20.07585292,-207.0247399,14.01244275,14.3719084,0.373587786,,,,,,,,,
1327,-0.640380859,0.697021484,-0.321044922,-14.01244275,-14.35664122,-0.953740458,20.08410615,-207.0215932,14.01244275,14.35664122,0.953740458,,,,,,,,,
1805,0.733398438,-0.654052734,0.254150391,14.32343511,14.07847328,-0.098778626,20.08417189,206.9495134,14.32343511,14.07847328,-0.098778626,,,,,,,,,
1846,0.406494141,-0.357910156,0.828369141,13.8959542,14.49832061,0.305801527,20.0846299,207.1294481,13.8959542,14.49832061,0.305801527,,,,,,,,,
1740,0.477783203,-0.412841797,-0.889648438,14.02572519,14.37618321,-0.220916031,20.08592578,207.0373014,14.02572519,14.37618321,-0.220916031,,,,,,,,,
1301,-0.448486328,0.522460938,-0.752685547,-13.83687023,-14.53984733,-0.762900763,20.08601891,-207.1077018,13.83687023,14.53984733,0.762900763,,,,,,,,,
1699,-0.017822266,0.091552734,-1.041015625,14.31580153,14.08610687,-0.488091603,20.08976888,206.8778888,14.31580153,14.08610687,-0.488091603,,,,,,,,,
1356,-0.627441406,0.6875,0.24609375,-13.98954198,-14.41770992,-0.312519084,20.09167272,-207.1928006,13.98954198,14.41770992,0.312519084,,,,,,,,,
1746,0.546386719,-0.471679688,-0.783447266,14.27,14.14717557,0.176030534,20.09493626,207.1361627,14.27,14.14717557,0.176030534,,,,,,,,,
1150,0.692626953,-0.641113281,0.386962891,-14.0429771,-14.35664122,-0.785801527,20.09815506,-207.2063237,14.0429771,14.35664122,0.785801527,,,,,,,,,
1352,-0.646728516,0.714599609,0.170410156,-13.82160305,-14.58564885,-0.694198473,20.10621235,-207.3285165,13.82160305,14.58564885,0.694198473,,,,,,,,,
1592,-0.55078125,0.607421875,0.541259766,14.18603053,14.26167939,0.092061069,20.11585038,207.3797074,14.18603053,14.26167939,0.092061069,,,,,,,,,
1822,0.643066406,-0.589355469,0.548095703,14.23183206,14.21587786,0.176030534,20.11634196,207.3786702,14.23183206,14.21587786,0.176030534,,,,,,,,,
1353,-0.646240234,0.717529297,0.194335938,-13.9819084,-14.44824427,-0.717099237,20.11864201,-207.4442387,13.9819084,14.44824427,0.717099237,,,,,,,,,
1830,0.579101563,-0.534912109,0.626464844,13.96465649,14.48305344,0.084427481,20.11908536,207.4608991,13.96465649,14.48305344,0.084427481,,,,,,,,,
1106,0.288818359,-0.296386719,0.952392578,-14.00480916,-14.44824427,-0.007175573,20.12179151,-207.4710746,14.00480916,14.44824427,0.007175573,,,,,,,,,
1737,0.439208984,-0.376464844,-0.885986328,14.07916031,14.37618321,-0.213282443,20.12319279,207.4182611,14.07916031,14.37618321,-0.213282443,,,,,,,,,
1796,0.761230469,-0.686767578,0.112060547,14.14022901,14.32274809,0.038625954,20.12681498,207.5007143,14.14022901,14.32274809,0.038625954,,,,,,,,,
1718,0.230224609,-0.139892578,-1.023925781,14.20129771,14.26167939,-0.198015267,20.12738348,207.4326449,14.20129771,14.26167939,-0.198015267,,,,,,,,,
1308,-0.521972656,0.577148438,-0.637939453,-13.89793893,-14.54748092,-0.67129771,20.13038867,-207.5809563,13.89793893,14.54748092,0.67129771,,,,,,,,,
1760,0.653564453,-0.584228516,-0.580810547,13.96465649,14.48305344,-0.694198473,20.13088123,207.3119497,13.96465649,14.48305344,-0.694198473,,,,,,,,,
1335,-0.661865234,0.717041016,-0.154052734,-13.83687023,-14.61618321,-0.556793893,20.13459234,-207.6389168,13.83687023,14.61618321,0.556793893,,,,,,,,,
1761,0.660644531,-0.590332031,-0.536132813,14.21656489,14.24641221,-0.587328244,20.13494307,207.3524701,14.21656489,14.24641221,-0.587328244,,,,,,,,,
1276,-0.180419922,0.247314453,-0.998291016,-13.90557252,-14.54748092,-0.709465649,20.13696823,-207.6424719,13.90557252,14.54748092,0.709465649,,,,,,,,,
1708,0.101806641,-0.029541016,-1.0234375,14.2089313,14.26931298,0.12259542,20.13757808,207.6052555,14.2089313,14.26931298,0.12259542,,,,,,,,,
1755,0.618896484,-0.561767578,-0.640136719,14.26236641,14.21587786,0.198931298,20.13816905,207.5999079,14.26236641,14.21587786,0.198931298,,,,,,,,,
1832,0.550537109,-0.464111328,0.643066406,13.96465649,14.51358779,0.030992366,20.14092406,207.6789341,13.96465649,14.51358779,0.030992366,,,,,,,,,
1242,0.264160156,-0.176025391,-1.008056641,-13.91320611,-14.53984733,-0.87740458,20.1433439,-207.6717482,13.91320611,14.53984733,0.87740458,,,,,,,,,
1835,0.531005859,-0.468261719,0.724853516,13.94938931,14.53648855,0.145496183,20.14736039,207.7636029,13.94938931,14.53648855,0.145496183,,,,,,,,,
1139,0.624023438,-0.570800781,0.562744141,-14.08877863,-14.38717557,-0.717099237,20.1494103,-207.7467234,14.08877863,14.38717557,0.717099237,,,,,,,,,
1309,-0.519775391,0.591308594,-0.611328125,-13.93610687,-14.53984733,-0.648396947,20.15050008,-207.7905822,13.93610687,14.53984733,0.648396947,,,,,,,,,
1788,0.749267578,-0.681396484,-0.071289063,14.01045802,14.48305344,0.183664122,20.15156329,207.805168,14.01045802,14.48305344,0.183664122,,,,,,,,,
1829,0.577148438,-0.511962891,0.605224609,14.01045802,14.48305344,0.206564885,20.15178502,207.8095489,14.01045802,14.48305344,0.206564885,,,,,,,,,
1246,0.211914063,-0.142333984,-1.028564453,-13.84450382,-14.63145038,-0.625496183,20.15293705,-207.8204021,13.84450382,14.63145038,0.625496183,,,,,,,,,
1804,0.714599609,-0.665039063,0.208984375,14.28526718,14.21587786,0.137862595,20.15388419,207.7508682,14.28526718,14.21587786,0.137862595,,,,,,,,,
1296,-0.414550781,0.457275391,-0.807373047,-13.72236641,-14.72305344,-1.068244275,20.15472124,-207.7224428,13.72236641,14.72305344,1.068244275,,,,,,,,,
1245,0.231933594,-0.159912109,-1.008789063,-13.89793893,-14.59328244,-0.388854962,20.15608611,-207.8693113,13.89793893,14.59328244,0.388854962,,,,,,,,,
1806,0.722900391,-0.666748047,0.263427734,14.49900763,14.0021374,-0.114045802,20.15673785,207.6228768,14.49900763,14.0021374,-0.114045802,,,,,,,,,
1628,-0.647949219,0.707519531,-0.170410156,14.38450382,14.11664122,-0.320152672,20.15678564,207.6262,14.38450382,14.11664122,-0.320152672,,,,,,,,,
1348,-0.642822266,0.704345703,0.090087891,-14.0429771,-14.45587786,-0.457557252,20.15904187,-207.8853669,14.0429771,14.45587786,0.457557252,,,,,,,,,
1848,0.388427734,-0.329101563,0.839355469,14.04099237,14.46015267,0.39740458,20.1594497,207.8917201,14.04099237,14.46015267,0.39740458,,,,,,,,,
1290,-0.340332031,0.406982422,-0.87109375,-14.05824427,-14.4329771,-0.869770992,20.16684312,-207.901458,14.05824427,14.4329771,0.869770992,,,,,,,,,
1766,0.702880859,-0.622802734,-0.459472656,14.10969466,14.40671756,0.26,20.16691831,207.9539129,14.10969466,14.40671756,0.26,,,,,,,,,
1306,-0.508300781,0.572509766,-0.689453125,-14.1040458,-14.40244275,-0.648396947,20.16866093,-207.9561378,14.1040458,14.40244275,0.648396947,,,,,,,,,
1315,-0.576904297,0.617919922,-0.540039063,-13.8521374,-14.63908397,-0.770534351,20.16874347,-207.9594261,13.8521374,14.63908397,0.770534351,,,,,,,,,
1316,-0.572265625,0.641113281,-0.520263672,-13.7910687,-14.70778626,-0.564427481,20.1700553,-207.9998631,13.7910687,14.70778626,0.564427481,,,,,,,,,
1821,0.655517578,-0.576171875,0.522460938,14.12496183,14.39908397,0.19129771,20.1713847,207.9921344,14.12496183,14.39908397,0.19129771,,,,,,,,,
1154,0.703613281,-0.647705078,0.141113281,-14.03534351,-14.44061069,-1.236183206,20.17548645,-207.8659735,14.03534351,14.44061069,1.236183206,,,,,,,,,
1605,-0.633300781,0.701416016,0.278808594,14.41503817,14.11664122,-0.281984733,20.17801775,207.8503583,14.41503817,14.11664122,-0.281984733,,,,,,,,,
1756,0.609863281,-0.55078125,-0.63671875,14.08679389,14.45251908,0.038625954,20.18203563,208.0913076,14.08679389,14.45251908,0.038625954,,,,,,,,,
1365,-0.606689453,0.650146484,0.382568359,-14.01244275,-14.51694656,-0.640763359,20.18665071,-208.1600712,14.01244275,14.51694656,0.640763359,,,,,,,,,
1634,-0.641113281,0.700195313,-0.271484375,14.23946565,14.30748092,-0.259083969,20.18745939,208.0344193,14.23946565,14.30748092,-0.259083969,,,,,,,,,
1670,-0.374511719,0.435302734,-0.872802734,14.3921374,14.17007634,-0.030076336,20.1971678,208.1353551,14.3921374,14.17007634,-0.030076336,,,,,,,,,
1620,-0.671630859,0.719726563,-0.022705078,14.5829771,13.97923664,-0.159847328,20.20167887,208.0392785,14.5829771,13.97923664,-0.159847328,,,,,,,,,
1389,-0.406494141,0.455078125,0.766357422,-14.06587786,-14.4940458,-0.488091603,20.20308187,-208.339172,14.06587786,14.4940458,0.488091603,,,,,,,,,
1872,0.085205078,-0.051269531,0.953369141,14.22419847,14.34564885,0.282900763,20.20409602,208.3149927,14.22419847,14.34564885,0.282900763,,,,,,,,,
1594,-0.580566406,0.634277344,0.422119141,14.20129771,14.36854962,-0.449923664,20.20728844,208.1833552,14.20129771,14.36854962,-0.449923664,,,,,,,,,
1386,-0.440429688,0.485839844,0.725097656,-14.08114504,-14.48641221,-0.495725191,20.20842715,-208.3919965,14.08114504,14.48641221,0.495725191,,,,,,,,,
1819,0.652587891,-0.59765625,0.461425781,14.09442748,14.48305344,0.145496183,20.20972271,208.3942229,14.09442748,14.48305344,0.145496183,,,,,,,,,
1372,-0.548828125,0.605957031,0.520507813,-14.03534351,-14.53221374,-0.579694656,20.21168349,-208.42516,14.03534351,14.53221374,0.579694656,,,,,,,,,
1373,-0.532714844,0.590087891,0.541992188,-14.07351145,-14.50167939,-0.404122137,20.2120198,-208.4343873,14.07351145,14.50167939,0.404122137,,,,,,,,,
1865,0.186767578,-0.150146484,0.970214844,14.1478626,14.43725191,0.160763359,20.21440337,208.4342573,14.1478626,14.43725191,0.160763359,,,,,,,,,
1261,0.025634766,0.053222656,-1.040039063,-13.82923664,-14.72305344,-0.953740458,20.22191162,-208.4595374,13.82923664,14.72305344,0.953740458,,,,,,,,,
1362,-0.621582031,0.655273438,0.361816406,-14.13458015,-14.45587786,-0.53389313,20.22483134,-208.5505402,14.13458015,14.45587786,0.53389313,,,,,,,,,
1641,-0.627441406,0.680908203,-0.414306641,14.37687023,14.22351145,-0.205648855,20.22486012,208.39279,14.37687023,14.22351145,-0.205648855,,,,,,,,,
1790,0.768066406,-0.703857422,-0.014892578,14.33870229,14.2540458,0.542442748,20.22549009,208.4930843,14.33870229,14.2540458,0.542442748,,,,,,,,,
1228,0.426269531,-0.339599609,-0.959716797,-14.3559542,-14.2421374,-0.381221374,20.22565768,-208.4957468,14.3559542,14.2421374,0.381221374,,,,,,,,,
1723,0.297119141,-0.220458984,-0.981933594,14.3310687,14.27694656,0.015725191,20.2289639,208.509303,14.3310687,14.27694656,0.015725191,,,,,,,,,
1368,-0.579345703,0.626708984,0.462402344,-14.14984733,-14.45587786,-0.32778626,20.23111534,-208.6195409,14.14984733,14.45587786,0.32778626,,,,,,,,,
1388,-0.411621094,0.44921875,0.729980469,-14.18038168,-14.42534351,-0.457557252,20.2332182,-208.6329655,14.18038168,14.42534351,0.457557252,,,,,,,,,
1291,-0.358642578,0.417480469,-0.864013672,-13.85977099,-14.73832061,-0.60259542,20.24041669,-208.7233495,13.85977099,14.73832061,0.60259542,,,,,,,,,
1354,-0.640136719,0.687988281,0.211181641,-14.06587786,-14.54748092,-0.587328244,20.24408742,-208.7576057,14.06587786,14.54748092,0.587328244,,,,,,,,,
1349,-0.656494141,0.723876953,0.10546875,-14.09641221,-14.52458015,-0.663664122,20.25123986,-208.8178726,14.09641221,14.52458015,0.663664122,,,,,,,,,
1686,-0.187255859,0.260986328,-0.973388672,14.30053435,14.34564885,-0.106412214,20.25621503,208.78266,14.30053435,14.34564885,-0.106412214,,,,,,,,,
1837,0.513427734,-0.458740234,0.739990234,14.32343511,14.32274809,0.153129771,20.25648921,208.8237596,14.32343511,14.32274809,0.153129771,,,,,,,,,
1375,-0.538818359,0.583740234,0.5546875,-13.98954198,-14.64671756,-0.358320611,20.25739405,-208.9134905,13.98954198,14.64671756,0.358320611,,,,,,,,,
1328,-0.643310547,0.706542969,-0.299316406,-13.99717557,-14.63145038,-0.701832061,20.26062271,-208.9192891,13.99717557,14.63145038,0.701832061,,,,,,,,,
1297,-0.421386719,0.476806641,-0.803466797,-13.79870229,-14.82229008,-0.678931298,20.26241387,-208.9319458,13.79870229,14.82229008,0.678931298,,,,,,,,,
1598,-0.609863281,0.656982422,0.393798828,14.23183206,14.42198473,-0.365954198,20.26505884,208.8157251,14.23183206,14.42198473,-0.365954198,,,,,,,,,
1351,-0.649658203,0.718017578,0.136962891,-13.95900763,-14.6848855,-0.656030534,20.2714117,-209.0389063,13.95900763,14.6848855,0.656030534,,,,,,,,,
1697,-0.053955078,0.122558594,-1.047851563,14.25473282,14.41435115,-0.205648855,20.27346093,208.9519695,14.25473282,14.41435115,-0.205648855,,,,,,,,,
1640,-0.628173828,0.674804688,-0.384033203,14.46847328,14.20824427,-0.274351145,20.28019214,208.9160893,14.46847328,14.20824427,-0.274351145,,,,,,,,,
1650,-0.567626953,0.623779297,-0.544189453,14.34633588,14.32274809,-0.617862595,20.28152411,208.8389132,14.34633588,14.32274809,-0.617862595,,,,,,,,,
1259,0.044921875,0.01171875,-1.044189453,-14.03534351,-14.63145038,-0.633129771,20.28474947,-209.1772176,14.03534351,14.63145038,0.633129771,,,,,,,,,
1284,-0.269287109,0.343261719,-0.924804688,-13.81396947,-14.84519084,-0.60259542,20.2871527,-209.1969641,13.81396947,14.84519084,0.60259542,,,,,,,,,
1751,0.608886719,-0.522460938,-0.706298828,14.33870229,14.35328244,0.130229008,20.28871755,209.1560643,14.33870229,14.35328244,0.130229008,,,,,,,,,
1140,0.621337891,-0.565673828,0.503417969,-14.26435115,-14.41007634,-0.717099237,20.28882069,-209.164843,14.26435115,14.41007634,0.717099237,,,,,,,,,
1773,0.729248047,-0.652832031,-0.342529297,14.33870229,14.36091603,0.015725191,20.2937069,209.1912242,14.33870229,14.36091603,0.015725191,,,,,,,,,
1825,0.6171875,-0.5625,0.556396484,14.32343511,14.37618321,0.000458015,20.29372901,209.1940038,14.32343511,14.37618321,0.000458015,,,,,,,,,
1742,0.506835938,-0.430419922,-0.801269531,14.34633588,14.35328244,-0.091145038,20.29390001,209.1679301,14.34633588,14.35328244,-0.091145038,,,,,,,,,
1656,-0.519287109,0.573486328,-0.667480469,14.39977099,14.29984733,-0.274351145,20.29567212,209.1129327,14.39977099,14.29984733,-0.274351145,,,,,,,,,
1769,0.704345703,-0.620849609,-0.430664063,14.30053435,14.39908397,0.46610687,20.29916642,209.2916315,14.30053435,14.39908397,0.46610687,,,,,,,,,
1313,-0.559814453,0.623779297,-0.564941406,-14.02007634,-14.66961832,-0.579694656,20.30015488,-209.3438885,14.02007634,14.66961832,0.579694656,,,,,,,,,
1859,0.250732422,-0.194580078,0.911376953,14.15549618,14.5670229,0.168396947,20.31267058,209.4600244,14.15549618,14.5670229,0.168396947,,,,,,,,,
1310,-0.531982422,0.600830078,-0.600830078,-14.1040458,-14.60854962,-0.60259542,20.31494404,-209.4881115,14.1040458,14.60854962,0.60259542,,,,,,,,,
1696,-0.065185547,0.139404297,-1.022460938,14.41503817,14.30748092,-0.457557252,20.31518383,209.2433785,14.41503817,14.30748092,-0.457557252,,,,,,,,,
1820,0.659667969,-0.583007813,0.495361328,14.23946565,14.49068702,0.252366412,20.31762981,209.5018011,14.23946565,14.49068702,0.252366412,,,,,,,,,
1369,-0.575927734,0.628173828,0.469238281,-14.08877863,-14.63145038,-0.488091603,20.31775718,-209.5289716,14.08877863,14.63145038,0.488091603,,,,,,,,,
1757,0.640136719,-0.568359375,-0.571289063,14.14022901,14.59755725,0.084427481,20.32343185,209.5637899,14.14022901,14.59755725,0.084427481,,,,,,,,,
1834,0.536865234,-0.493896484,0.701171875,14.27763359,14.46778626,0.137862595,20.32699354,209.579775,14.27763359,14.46778626,0.137862595,,,,,,,,,
1383,-0.474853516,0.522705078,0.669433594,-14.24145038,-14.50167939,-0.281984733,20.32725091,-209.6037353,14.24145038,14.50167939,0.281984733,,,,,,,,,
1278,-0.206542969,0.270019531,-0.985107422,-13.9819084,-14.7459542,-0.526259542,20.32766285,-209.6332382,13.9819084,14.7459542,0.526259542,,,,,,,,,
1747,0.559570313,-0.481933594,-0.744628906,14.2089313,14.55175573,-0.190381679,20.33921258,209.6567618,14.2089313,14.55175573,-0.190381679,,,,,,,,,
1275,-0.169189453,0.230712891,-0.989013672,-13.9819084,-14.7459542,-0.892671756,20.34044716,-209.703332,13.9819084,14.7459542,0.892671756,,,,,,,,,
1854,0.313476563,-0.259033203,0.913085938,14.13259542,14.6280916,0.351603053,20.34293346,209.7889429,14.13259542,14.6280916,0.351603053,,,,,,,,,
1170,0.745605469,-0.667480469,-0.00390625,-14.34832061,-14.40244275,-0.755267176,20.34392022,-209.7114365,14.34832061,14.40244275,0.755267176,,,,,,,,,
1675,-0.326171875,0.384521484,-0.891845703,14.27,14.49832061,-0.259083969,20.344565,209.6778829,14.27,14.49832061,-0.259083969,,,,,,,,,
1321,-0.602294922,0.666503906,-0.412597656,-14.05824427,-14.69251908,-0.709465649,20.34717894,-209.8109773,14.05824427,14.69251908,0.709465649,,,,,,,,,
1599,-0.599121094,0.661865234,0.369384766,14.29290076,14.48305344,0.046259542,20.34816918,209.7848085,14.29290076,14.48305344,0.046259542,,,,,,,,,
1370,-0.560791016,0.611572266,0.480712891,-14.20328244,-14.57038168,-0.312519084,20.35010866,-209.8520839,14.20328244,14.57038168,0.312519084,,,,,,,,,
1573,-0.392822266,0.440917969,0.852783203,14.30816794,14.47541985,-0.335419847,20.35617734,209.7631583,14.30816794,14.47541985,-0.335419847,,,,,,,,,
1639,-0.632080078,0.693603516,-0.367431641,14.30053435,14.48305344,-0.358320611,20.35663315,209.7616275,14.30053435,14.48305344,-0.358320611,,,,,,,,,
1601,-0.612548828,0.671630859,0.348876953,14.5219084,14.26931298,-0.167480916,20.35994023,209.772547,14.5219084,14.26931298,-0.167480916,,,,,,,,,
1853,0.326904297,-0.291748047,0.878173828,14.22419847,14.5670229,0.137862595,20.36037781,209.9421111,14.22419847,14.5670229,0.137862595,,,,,,,,,
1581,-0.475585938,0.535644531,0.648681641,14.62877863,14.16244275,-0.060610687,20.36122841,209.7530901,14.62877863,14.16244275,-0.060610687,,,,,,,,,
1108,0.323242188,-0.253417969,0.917236328,-14.27198473,-14.48641221,-1.068244275,20.36386095,-209.8568732,14.27198473,14.48641221,1.068244275,,,,,,,,,
1849,0.373046875,-0.334960938,0.868896484,14.2089313,14.58229008,0.473740458,20.36569033,210.0120639,14.2089313,14.58229008,0.473740458,,,,,,,,,
1575,-0.403564453,0.46875,0.702148438,14.38450382,14.42961832,-0.15221374,20.3752547,209.9979616,14.38450382,14.42961832,-0.15221374,,,,,,,,,
1770,0.715820313,-0.634033203,-0.384033203,14.30816794,14.49832061,0.557709924,20.37734062,210.1052048,14.30816794,14.49832061,0.557709924,,,,,,,,,
1325,-0.624511719,0.681884766,-0.356445313,-14.15748092,-14.65435115,-0.53389313,20.38306442,-210.196854,14.15748092,14.65435115,0.53389313,,,,,,,,,
1320,-0.604736328,0.65234375,-0.433105469,-13.96664122,-14.84519084,-0.510992366,20.3889154,-210.2637248,13.96664122,14.84519084,0.510992366,,,,,,,,,
1090,0.078613281,0.033691406,0.912841797,-14.19564885,-14.62381679,-0.625496183,20.39028468,-210.2571914,14.19564885,14.62381679,0.625496183,,,,,,,,,
1123,0.474609375,-0.428955078,0.735839844,-14.23381679,-14.59328244,-0.488091603,20.39126446,-210.2737201,14.23381679,14.59328244,0.488091603,,,,,,,,,
1623,-0.666259766,0.740234375,-0.065429688,14.39977099,14.4448855,-0.121679389,20.3966401,210.2263597,14.39977099,14.4448855,-0.121679389,,,,,,,,,
1336,-0.656494141,0.715820313,-0.154052734,-14.24908397,-14.58564885,-0.556793893,20.39822458,-210.3382269,14.24908397,14.58564885,0.556793893,,,,,,,,,
1654,-0.531738281,0.583496094,-0.650146484,14.56007634,14.28458015,-0.388854962,20.40088874,210.1153982,14.56007634,14.28458015,-0.388854962,,,,,,,,,
1668,-0.386230469,0.455322266,-0.771972656,14.3921374,14.46015267,-0.304885496,20.40398465,210.2512271,14.3921374,14.46015267,-0.304885496,,,,,,,,,
1831,0.55859375,-0.531494141,0.646484375,14.23946565,14.62045802,0.137862595,20.40929153,210.4499894,14.23946565,14.62045802,0.137862595,,,,,,,,,
1392,-0.373046875,0.423339844,0.793701172,-14.30251908,-14.5551145,-0.457557252,20.41133923,-210.4704855,14.30251908,14.5551145,0.457557252,,,,,,,,,
1618,-0.666259766,0.707763672,0.043945313,14.59824427,14.26931298,-0.060610687,20.41386055,210.3351331,14.59824427,14.26931298,-0.060610687,,,,,,,,,
1604,-0.630615234,0.693359375,0.303222656,14.45320611,14.42198473,0.05389313,20.41792631,210.468253,14.45320611,14.42198473,0.05389313,,,,,,,,,
1677,-0.297363281,0.364013672,-0.936767578,14.42267176,14.45251908,-0.136946565,20.41831342,210.443146,14.42267176,14.45251908,-0.136946565,,,,,,,,,
1374,-0.526855469,0.584472656,0.549804688,-14.03534351,-14.82229008,-0.472824427,20.4184895,-210.5731584,14.03534351,14.82229008,0.472824427,,,,,,,,,
1636,-0.629150391,0.698730469,-0.302734375,14.33870229,14.52885496,-0.488091603,20.41872286,210.3502592,14.33870229,14.52885496,-0.488091603,,,,,,,,,
1202,0.661376953,-0.587646484,-0.563964844,-14.07351145,-14.79175573,-0.304885496,20.4194201,-210.583846,14.07351145,14.79175573,0.304885496,,,,,,,,,
1880,-0.0078125,0.055664063,0.994628906,14.33870229,14.53648855,0.359236641,20.42148216,210.5694155,14.33870229,14.53648855,0.359236641,,,,,,,,,
1710,0.125976563,-0.045898438,-1.053466797,14.32343511,14.55175573,-0.39648855,20.4223307,210.4305471,14.32343511,14.55175573,-0.39648855,,,,,,,,,
1716,0.200927734,-0.134521484,-1.043945313,14.32343511,14.57465649,-0.075877863,20.43494954,210.663072,14.32343511,14.57465649,-0.075877863,,,,,,,,,
1622,-0.672851563,0.716552734,-0.045166016,14.35396947,14.54412214,-0.190381679,20.43536575,210.6297674,14.35396947,14.54412214,-0.190381679,,,,,,,,,
1658,-0.494628906,0.564453125,-0.694091797,14.46847328,14.42961832,-0.266717557,20.43579561,210.5724135,14.46847328,14.42961832,-0.266717557,,,,,,,,,
1358,-0.620849609,0.678222656,0.285888672,-14.15748092,-14.73068702,-0.510992366,20.43742937,-210.7631158,14.15748092,14.73068702,0.510992366,,,,,,,,,
1318,-0.592773438,0.652832031,-0.4609375,-14.33305344,-14.56274809,-0.472824427,20.43853262,-210.7473271,14.33305344,14.56274809,0.472824427,,,,,,,,,
1624,-0.658691406,0.740722656,-0.069580078,14.3921374,14.51358779,-0.198015267,20.44057386,210.6711211,14.3921374,14.51358779,-0.198015267,,,,,,,,,
1201,0.669921875,-0.60546875,-0.531738281,-14.31778626,-14.57038168,-0.724732824,20.44065222,-210.7441525,14.31778626,14.57038168,0.724732824,,,,,,,,,
1632,-0.632568359,0.701660156,-0.224121094,14.59824427,14.30748092,-0.320152672,20.44297541,210.5708047,14.59824427,14.30748092,-0.320152672,,,,,,,,,
1637,-0.613037109,0.685791016,-0.326660156,14.59824427,14.3151145,-0.114045802,20.44613033,210.6672967,14.59824427,14.3151145,-0.114045802,,,,,,,,,
1789,0.761962891,-0.684814453,-0.039794922,14.33870229,14.57465649,0.176030534,20.44627061,210.8196899,14.33870229,14.57465649,0.176030534,,,,,,,,,
1387,-0.447265625,0.473388672,0.728271484,-14.25671756,-14.65435115,-0.350687023,20.44815357,-210.8665918,14.25671756,14.65435115,0.350687023,,,,,,,,,
1666,-0.42578125,0.485107422,-0.840087891,14.36160305,14.55938931,-0.228549618,20.4519851,210.7908087,14.36160305,14.55938931,-0.228549618,,,,,,,,,
1864,0.197509766,-0.149658203,0.965087891,14.18603053,14.72732824,0.389770992,20.45212901,210.9175793,14.18603053,14.72732824,0.389770992,,,,,,,,,
1795,0.751953125,-0.708740234,0.074707031,14.54480916,14.38381679,0.420305344,20.46026187,210.9035959,14.54480916,14.38381679,0.420305344,,,,,,,,,
1293,-0.376953125,0.447753906,-0.844726563,-14.12694656,-14.79175573,-0.556793893,20.46159026,-211.0115349,14.12694656,14.79175573,0.556793893,,,,,,,,,
1657,-0.500732422,0.572509766,-0.674560547,14.48374046,14.46015267,-0.205648855,20.46746307,210.9207814,14.48374046,14.46015267,-0.205648855,,,,,,,,,
1690,-0.144042969,0.208007813,-1.019775391,14.54480916,14.39908397,-0.198015267,20.46764038,210.8994411,14.54480916,14.39908397,-0.198015267,,,,,,,,,
1674,-0.332763672,0.405029297,-0.891845703,14.62877863,14.32274809,-0.266717557,20.47470184,210.9120121,14.62877863,14.32274809,-0.266717557,,,,,,,,,
1660,-0.473876953,0.532714844,-0.720947266,14.35396947,14.60519084,-0.373587786,20.4813966,211.0512347,14.35396947,14.60519084,-0.373587786,,,,,,,,,
1619,-0.670410156,0.721435547,-0.005126953,14.36160305,14.60519084,-0.427022901,20.48779125,211.0952269,14.36160305,14.60519084,-0.427022901,,,,,,,,,
1753,0.588378906,-0.536132813,-0.681396484,14.42267176,14.55175573,-0.136946565,20.48867516,211.1849816,14.42267176,14.55175573,-0.136946565,,,,,,,,,
1631,-0.646484375,0.703857422,-0.200195313,14.42267176,14.55175573,-0.236183206,20.48957876,211.1659978,14.42267176,14.55175573,-0.236183206,,,,,,,,,
1314,-0.546386719,0.619628906,-0.534179688,-14.12694656,-14.82992366,-0.579694656,20.48983409,-211.3012372,14.12694656,14.82992366,0.579694656,,,,,,,,,
1270,-0.105957031,0.173583984,-1.029785156,-14.17274809,-14.78412214,-0.67129771,20.49116142,-211.3016602,14.17274809,14.78412214,0.67129771,,,,,,,,,
1269,-0.080810547,0.153076172,-1.01953125,-14.13458015,-14.82229008,-0.686564885,20.49287707,-211.3188311,14.13458015,14.82229008,0.686564885,,,,,,,,,
1363,-0.608886719,0.657958984,0.365234375,-14.17274809,-14.79175573,-0.732366412,20.49876061,-211.3704068,14.17274809,14.79175573,0.732366412,,,,,,,,,
1617,-0.664550781,0.720458984,0.062744141,14.41503817,14.57465649,-0.259083969,20.50075759,211.2785956,14.41503817,14.57465649,-0.259083969,,,,,,,,,
1651,-0.553710938,0.619140625,-0.578613281,14.44557252,14.54412214,-0.297251908,20.50108321,211.2598939,14.44557252,14.54412214,-0.297251908,,,,,,,,,
1122,0.470703125,-0.425048828,0.799316406,-14.13458015,-14.83755725,-0.686564885,20.50392237,-211.4329597,14.13458015,14.83755725,0.686564885,,,,,,,,,
1635,-0.635742188,0.698486328,-0.292236328,14.55244275,14.4448855,-0.251450382,20.50589023,211.2858189,14.55244275,14.4448855,-0.251450382,,,,,,,,,
1300,-0.450195313,0.508300781,-0.760986328,-14.07351145,-14.90625954,-0.724732824,20.51305769,-211.5201259,14.07351145,14.90625954,0.724732824,,,,,,,,,
1602,-0.619140625,0.662353516,0.327636719,14.51427481,14.49832061,0.023358779,20.51501936,211.4667682,14.51427481,14.49832061,0.023358779,,,,,,,,,
1600,-0.616455078,0.666015625,0.356689453,14.51427481,14.5059542,-0.167480916,20.52108502,211.4873253,14.51427481,14.5059542,-0.167480916,,,,,,,,,
1345,-0.665771484,0.701660156,0.026611328,-14.07351145,-14.92152672,-0.633129771,20.52112418,-211.616731,14.07351145,14.92152672,0.633129771,,,,,,,,,
1667,-0.413330078,0.474365234,-0.812988281,14.54480916,14.47541985,-0.404122137,20.52443831,211.4306561,14.54480916,14.47541985,-0.404122137,,,,,,,,,
1782,0.754882813,-0.689208984,-0.154541016,14.47610687,14.55938931,0.244732824,20.53273926,211.6945597,14.47610687,14.55938931,0.244732824,,,,,,,,,
1235,0.357666016,-0.285400391,-0.946289063,-14.09641221,-14.92152672,-0.526259542,20.53381957,-211.7589296,14.09641221,14.92152672,0.526259542,,,,,,,,,
1597,-0.59765625,0.641601563,0.434082031,14.57534351,14.46778626,-0.175114504,20.53748141,211.6342573,14.57534351,14.46778626,-0.175114504,,,,,,,,,
1251,0.153808594,-0.075439453,-1.044433594,-13.95900763,-15.0589313,-0.488091603,20.53931692,-211.8029294,13.95900763,15.0589313,0.488091603,,,,,,,,,
1137,0.609130859,-0.569580078,0.60546875,-14.26435115,-14.77648855,-0.228549618,20.53943919,-211.8104697,14.26435115,14.77648855,0.228549618,,,,,,,,,
1633,-0.639892578,0.703857422,-0.245361328,14.5829771,14.46778626,-0.281984733,20.54408858,211.6680274,14.5829771,14.46778626,-0.281984733,,,,,,,,,
1691,-0.132568359,0.188964844,-1.024169922,14.73564885,14.3151145,-0.350687023,20.54713683,211.5978835,14.73564885,14.3151145,-0.350687023,,,,,,,,,
1659,-0.479980469,0.552734375,-0.685791016,14.47610687,14.58229008,0.030992366,20.54755009,211.8248645,14.47610687,14.58229008,0.030992366,,,,,,,,,
1673,-0.349121094,0.415039063,-0.874755859,14.50664122,14.55175573,-0.175114504,20.54816048,211.7740364,14.50664122,14.55175573,-0.175114504,,,,,,,,,
1114,0.384033203,-0.386474609,0.880859375,-14.27198473,-14.79938931,-0.243816794,20.56139389,-212.0387973,14.27198473,14.79938931,0.243816794,,,,,,,,,
1312,-0.544433594,0.622070313,-0.561767578,-14.24145038,-14.82229008,-0.541526718,20.56240364,-212.0500846,14.24145038,14.82229008,0.541526718,,,,,,,,,
1304,-0.480957031,0.543945313,-0.660888672,-14.22618321,-14.83755725,-0.648396947,20.56593816,-212.0762287,14.22618321,14.83755725,0.648396947,,,,,,,,,
1591,-0.563720703,0.607666016,0.51171875,14.39977099,14.67389313,-0.556793893,20.56663715,211.8550515,14.39977099,14.67389313,-0.556793893,,,,,,,,,
1680,-0.258789063,0.331542969,-0.923095703,14.59061069,14.49068702,-0.358320611,20.56682582,211.8788316,14.59061069,14.49068702,-0.358320611,,,,,,,,,
1311,-0.540283203,0.608886719,-0.5859375,-14.14221374,-14.90625954,-0.907938931,20.56752625,-212.0431007,14.14221374,14.90625954,0.907938931,,,,,,,,,
1694,-0.085693359,0.151611328,-1.024169922,14.29290076,14.79603053,-0.343053435,20.57491719,212.0499691,14.29290076,14.79603053,-0.343053435,,,,,,,,,
1098,0.196533203,-0.176757813,1.125976563,-14.0429771,-15.04366412,0.092061069,20.57973545,-212.1741752,14.0429771,15.04366412,-0.092061069,,,,,,,,,
1299,-0.434326172,0.505371094,-0.756103516,-14.07351145,-15.00549618,-0.846870229,20.58994486,-212.2853261,14.07351145,15.00549618,0.846870229,,,,,,,,,
1861,0.238525391,-0.194335938,0.963378906,14.3921374,14.72732824,0.252366412,20.5934821,212.3550777,14.3921374,14.72732824,0.252366412,,,,,,,,,
1333,-0.626464844,0.715332031,-0.171875,-14.40175573,-14.72305344,-0.419389313,20.59987276,-212.4233827,14.40175573,14.72305344,0.419389313,,,,,,,,,
1732,0.388427734,-0.322998047,-0.930419922,14.45320611,14.68152672,-0.106412214,20.60227456,212.3777722,14.45320611,14.68152672,-0.106412214,,,,,,,,,
1717,0.21484375,-0.146484375,-1.017089844,14.36923664,14.76549618,-0.136946565,20.60372766,212.4032818,14.36923664,14.76549618,-0.136946565,,,,,,,,,
1688,-0.177246094,0.240722656,-0.998291016,14.56007634,14.57465649,-0.526259542,20.60809025,212.2575554,14.56007634,14.57465649,-0.526259542,,,,,,,,,
1576,-0.420166016,0.469970703,0.704589844,14.65931298,14.5059542,-0.289618321,20.6252768,212.4940306,14.65931298,14.5059542,-0.289618321,,,,,,,,,
1609,-0.634521484,0.69921875,0.176513672,14.7051145,14.46778626,-0.01480916,20.62904387,212.5865648,14.7051145,14.46778626,-0.01480916,,,,,,,,,
1326,-0.627929688,0.685791016,-0.353271484,-14.24145038,-14.91389313,-0.617862595,20.63067792,-212.7494587,14.24145038,14.91389313,0.617862595,,,,,,,,,
1193,0.71484375,-0.635986328,-0.412597656,-14.56206107,-14.60854962,-0.53389313,20.63367118,-212.7278213,14.56206107,14.60854962,0.53389313,,,,,,,,,
1653,-0.535400391,0.591796875,-0.616210938,14.62114504,14.55938931,-0.182748092,20.63460919,212.6428535,14.62114504,14.55938931,-0.182748092,,,,,,,,,
1610,-0.649414063,0.707275391,0.166992188,14.40740458,14.78076336,-0.243816794,20.64227988,212.7680373,14.40740458,14.78076336,-0.243816794,,,,,,,,,
1360,-0.629150391,0.697998047,0.2890625,-14.21091603,-14.96732824,-0.404122137,20.64302216,-212.8911637,14.21091603,14.96732824,0.404122137,,,,,,,,,
1652,-0.549072266,0.602294922,-0.589111328,14.72801527,14.47541985,-0.037709924,20.65075387,212.8018909,14.72801527,14.47541985,-0.037709924,,,,,,,,,
1378,-0.510742188,0.552490234,0.608154297,-14.30251908,-14.89099237,-0.39648855,20.65092998,-212.9696312,14.30251908,14.89099237,0.39648855,,,,,,,,,
1364,-0.594238281,0.651367188,0.376464844,-14.40175573,-14.79938931,-0.541526718,20.65734115,-213.0173901,14.40175573,14.79938931,0.541526718,,,,,,,,,
1713,0.164306641,-0.086181641,-1.020507813,14.72038168,14.49068702,-0.243816794,20.65742225,212.8223774,14.72038168,14.49068702,-0.243816794,,,,,,,,,
1655,-0.521728516,0.581787109,-0.638671875,14.61351145,14.60519084,-0.213282443,20.6618442,212.9251838,14.61351145,14.60519084,-0.213282443,,,,,,,,,
1329,-0.646728516,0.722900391,-0.269287109,-14.40938931,-14.78412214,-0.862137405,20.66262444,-213.0188078,14.40938931,14.78412214,0.862137405,,,,,,,,,
1603,-0.626220703,0.690429688,0.307861328,14.5219084,14.70442748,0.015725191,20.66654926,213.0602575,14.5219084,14.70442748,0.015725191,,,,,,,,,
1377,-0.52734375,0.583984375,0.589355469,-14.40938931,-14.8070229,-0.488091603,20.66680094,-213.1184465,14.40938931,14.8070229,0.488091603,,,,,,,,,
1891,-0.159912109,0.206054688,0.898925781,14.47610687,14.74259542,0.496641221,20.66756982,213.1122918,14.47610687,14.74259542,0.496641221,,,,,,,,,
1273,-0.139648438,0.225341797,-1.018310547,-14.37885496,-14.82992366,-1.01480916,20.68110112,-213.1735424,14.37885496,14.82992366,1.01480916,,,,,,,,,
1572,-0.402832031,0.441650391,0.769042969,14.80435115,14.46778626,-0.457557252,20.70495136,213.2066528,14.80435115,14.46778626,-0.457557252,,,,,,,,,
1578,-0.430175781,0.476806641,0.760498047,14.63641221,14.66625954,-0.136946565,20.72058121,213.5589435,14.63641221,14.66625954,-0.136946565,,,,,,,,,
1705,0.055419922,0.020263672,-1.079589844,14.59061069,14.71969466,-0.297251908,20.72784817,213.6024421,14.59061069,14.71969466,-0.297251908,,,,,,,,,
1359,-0.626953125,0.66796875,0.270263672,-14.37885496,-14.92916031,-0.449923664,20.73243181,-213.8073167,14.37885496,14.92916031,0.449923664,,,,,,,,,
1752,0.584228516,-0.522705078,-0.687988281,14.3921374,14.93343511,-0.114045802,20.74015694,213.8257193,14.3921374,14.93343511,-0.114045802,,,,,,,,,
1638,-0.629882813,0.689208984,-0.354980469,14.43030534,14.91053435,-0.243816794,20.75131788,213.9007726,14.43030534,14.91053435,-0.243816794,,,,,,,,,
1649,-0.573242188,0.623535156,-0.538574219,14.62114504,14.72732824,-0.266717557,20.75435419,213.8822044,14.62114504,14.72732824,-0.266717557,,,,,,,,,
1728,0.352539063,-0.285644531,-0.940673828,14.51427481,14.83419847,0.168396947,20.75442062,214.0053417,14.51427481,14.83419847,0.168396947,,,,,,,,,
1643,-0.596923828,0.663085938,-0.432373047,14.67458015,14.68152672,-0.281984733,20.75981803,213.9163976,14.67458015,14.68152672,-0.281984733,,,,,,,,,
1173,0.763183594,-0.686035156,-0.032714844,-14.6078626,-14.7459542,-0.579694656,20.76460596,-214.0890252,14.6078626,14.7459542,0.579694656,,,,,,,,,
1873,0.071289063,-0.034423828,0.983398438,14.54480916,14.84183206,0.244732824,20.78199573,214.2938657,14.54480916,14.84183206,0.244732824,,,,,,,,,
1698,-0.04296875,0.10546875,-1.030517578,14.48374046,14.90290076,-0.304885496,20.78384334,214.2115255,14.48374046,14.90290076,-0.304885496,,,,,,,,,
1566,-0.323974609,0.380859375,0.830078125,14.55244275,14.84183206,-0.251450382,20.78741918,214.2531612,14.55244275,14.84183206,-0.251450382,,,,,,,,,
1621,-0.669677734,0.712158203,-0.02734375,14.85015267,14.55175573,-0.190381679,20.7922311,214.2107551,14.85015267,14.55175573,-0.190381679,,,,,,,,,
1064,-0.245605469,0.298583984,0.908447266,-14.6078626,-14.79175573,0.473740458,20.79447323,-214.2298911,14.6078626,14.79175573,-0.473740458,,,,,,,,,
1781,0.750488281,-0.672363281,-0.211669922,14.68221374,14.72732824,0.214198473,20.79681414,214.4079161,14.68221374,14.72732824,0.214198473,,,,,,,,,
1629,-0.662353516,0.711914063,-0.201904297,14.86541985,14.53648855,-0.480458015,20.79714034,214.1495641,14.86541985,14.53648855,-0.480458015,,,,,,,,,
1192,0.722412109,-0.659912109,-0.356689453,-14.34832061,-15.06656489,-0.091145038,20.8058643,-214.5489832,14.34832061,15.06656489,0.091145038,,,,,,,,,
1648,-0.573730469,0.628662109,-0.501953125,14.8348855,14.61282443,-0.373587786,20.82661838,214.523794,14.8348855,14.61282443,-0.373587786,,,,,,,,,
1727,0.338134766,-0.262207031,-0.96484375,14.50664122,14.94870229,-0.098778626,20.83065282,214.7559815,14.50664122,14.94870229,-0.098778626,,,,,,,,,
1094,0.143798828,-0.114013672,0.982910156,-14.4170229,-15.05129771,-0.129312977,20.84247667,-214.930084,14.4170229,15.05129771,0.129312977,,,,,,,,,
1158,0.728027344,-0.713623047,0.283447266,-14.32541985,-15.13526718,-0.373587786,20.84306921,-214.9539497,14.32541985,15.13526718,0.373587786,,,,,,,,,
1676,-0.30859375,0.361572266,-0.923095703,14.78145038,14.71206107,-0.030076336,20.85514135,214.9518431,14.78145038,14.71206107,-0.030076336,,,,,,,,,
1324,-0.605957031,0.675048828,-0.356689453,-14.55442748,-14.92916031,-0.488091603,20.85544102,-215.0615448,14.55442748,14.92916031,0.488091603,,,,,,,,,
1615,-0.65625,0.731201172,0.071289063,14.80435115,14.68916031,-0.198015267,20.85616104,214.9111665,14.80435115,14.68916031,-0.198015267,,,,,,,,,
1687,-0.172363281,0.254150391,-1.002197266,14.85778626,14.63572519,-0.167480916,20.85632552,214.8970572,14.85778626,14.63572519,-0.167480916,,,,,,,,,
1738,0.475097656,-0.409179688,-0.827636719,14.43030534,15.06320611,-0.022442748,20.85987522,215.0844064,14.43030534,15.06320611,-0.022442748,,,,,,,,,
1897,-0.234863281,0.297851563,0.917480469,14.33870229,15.14717557,0.786717557,20.87233182,215.2163335,14.33870229,15.14717557,0.786717557,,,,,,,,,
1611,-0.642089844,0.706298828,0.163330078,14.65931298,14.85709924,-0.220916031,20.87289291,215.1321298,14.65931298,14.85709924,-0.220916031,,,,,,,,,
1711,0.127441406,-0.056152344,-1.052001953,14.62114504,14.89526718,-0.549160305,20.87937843,215.0835877,14.62114504,14.89526718,-0.549160305,,,,,,,,,
1876,0.040283203,-0.00390625,0.989746094,14.27,15.24641221,0.221832061,20.8838501,215.3621799,14.27,15.24641221,0.221832061,,,,,,,,,
1395,-0.340576172,0.396484375,0.821777344,-14.56969466,-14.96732824,-0.419389313,20.89193157,-215.442152,14.56969466,14.96732824,0.419389313,,,,,,,,,
1286,-0.300292969,0.386230469,-0.959716797,-14.33305344,-15.1810687,-0.80870229,20.89390502,-215.433786,14.33305344,15.1810687,0.80870229,,,,,,,,,
1662,-0.465820313,0.522460938,-0.731201172,14.68221374,14.88,-0.08351145,20.90427646,215.4922504,14.68221374,14.88,-0.08351145,,,,,,,,,
1340,-0.666503906,0.720703125,-0.069824219,-14.63839695,-14.92152672,-0.46519084,20.90815696,-215.596456,14.63839695,14.92152672,0.46519084,,,,,,,,,
1672,-0.3515625,0.420898438,-0.860595703,15.00282443,14.5670229,-0.32778626,20.91387914,215.3828826,15.00282443,14.5670229,-0.32778626,,,,,,,,,
1606,-0.621337891,0.687744141,0.313720703,14.67458015,14.91816794,0.061526718,20.92603218,215.751103,14.67458015,14.91816794,0.061526718,,,,,,,,,
1896,-0.227783203,0.282714844,0.862792969,14.62114504,14.97160305,0.39740458,20.93047325,215.8353062,14.62114504,14.97160305,0.39740458,,,,,,,,,
1706,0.064697266,0.006835938,-1.071777344,14.91122137,14.68916031,-0.243816794,20.93263958,215.6614037,14.91122137,14.68916031,-0.243816794,,,,,,,,,
1661,-0.467285156,0.527832031,-0.749023438,14.80435115,14.8189313,-0.182748092,20.9476236,215.8841798,14.80435115,14.8189313,-0.182748092,,,,,,,,,
1741,0.499511719,-0.414794922,-0.827148438,14.59824427,15.02503817,-0.106412214,20.94926804,215.9757345,14.59824427,15.02503817,-0.106412214,,,,,,,,,
1616,-0.672363281,0.716308594,0.071289063,14.75091603,14.87236641,-0.358320611,20.95006444,215.8705436,14.75091603,14.87236641,-0.358320611,,,,,,,,,
1833,0.545410156,-0.466796875,0.647949219,14.72801527,14.90290076,0.183664122,20.95339155,216.0398385,14.72801527,14.90290076,0.183664122,,,,,,,,,
1281,-0.237060547,0.322265625,-0.961181641,-14.46282443,-15.15053435,-0.594961832,20.95390086,-216.0862823,14.46282443,15.15053435,0.594961832,,,,,,,,,
1712,0.153564453,-0.081298828,-1.0390625,14.59061069,15.04030534,-0.121679389,20.95498773,216.0327282,14.59061069,15.04030534,-0.121679389,,,,,,,,,
1642,-0.60546875,0.677001953,-0.435058594,14.65931298,14.97160305,-0.274351145,20.9551813,215.9778719,14.65931298,14.97160305,-0.274351145,,,,,,,,,
1678,-0.292480469,0.349121094,-0.9296875,14.75091603,14.88763359,-0.213282443,20.95892762,216.0124176,14.75091603,14.88763359,-0.213282443,,,,,,,,,
1577,-0.428710938,0.479248047,0.727783203,14.73564885,14.91053435,-0.281984733,20.96527837,216.0620394,14.73564885,14.91053435,-0.281984733,,,,,,,,,
1630,-0.650878906,0.697509766,-0.214355469,14.81198473,14.84183206,-0.022442748,20.96843757,216.1402528,14.81198473,14.84183206,-0.022442748,,,,,,,,,
1305,-0.492431641,0.553466797,-0.680664063,-14.45519084,-15.20396947,-0.579694656,20.98688342,-216.4285975,14.45519084,15.20396947,0.579694656,,,,,,,,,
1339,-0.656738281,0.713623047,-0.047607422,-14.48572519,-15.1810687,-0.411755725,20.98739203,-216.4421351,14.48572519,15.1810687,0.411755725,,,,,,,,,
1693,-0.108154297,0.165039063,-1.024902344,14.88068702,14.80366412,-0.030076336,20.9900982,216.341399,14.88068702,14.80366412,-0.030076336,,,,,,,,,
1683,-0.220458984,0.285644531,-0.843017578,14.73564885,14.97923664,-0.297251908,21.01440545,216.5726973,14.73564885,14.97923664,-0.297251908,,,,,,,,,
1066,-0.232910156,0.219726563,0.887451172,-14.37122137,-15.34900763,-0.39648855,21.03048364,-216.8814155,14.37122137,15.34900763,0.39648855,,,,,,,,,
1671,-0.370361328,0.427490234,-0.85546875,14.72038168,15.03267176,-0.205648855,21.04074971,216.8812423,14.72038168,15.03267176,-0.205648855,,,,,,,,,
1096,0.159423828,-0.094238281,0.890136719,-15.01244275,-14.79175573,-0.74,21.08831607,-217.3354298,15.01244275,14.79175573,0.74,,,,,,,,,
1086,0.018310547,0.063964844,0.970947266,-14.63076336,-15.19633588,-0.175114504,21.09546221,-217.5410647,14.63076336,15.19633588,0.175114504,,,,,,,,,
1117,0.426025391,-0.372314453,0.935058594,-14.24145038,-15.56274809,-0.518625954,21.1018248,-217.5809382,14.24145038,15.56274809,0.518625954,,,,,,,,,
1089,0.081054688,-0.020263672,0.984619141,-14.99717557,-14.85282443,-0.67129771,21.11805647,-217.670373,14.99717557,14.85282443,0.67129771,,,,,,,,,
1596,-0.596679688,0.631591797,0.437255859,14.92648855,14.9410687,-0.281984733,21.12143721,217.6456517,14.92648855,14.9410687,-0.281984733,,,,,,,,,
1247,0.201171875,-0.122558594,-1.075927734,-14.26435115,-15.58564885,-0.541526718,21.13474426,-217.9191545,14.26435115,15.58564885,0.541526718,,,,,,,,,
1815,0.680908203,-0.631347656,0.4375,14.86541985,15.03267176,0.092061069,21.14167455,217.9682634,14.86541985,15.03267176,0.092061069,,,,,,,,,
1571,-0.377929688,0.418212891,0.863525391,15.13259542,14.77312977,-0.259083969,21.1496556,217.8584021,15.13259542,14.77312977,-0.259083969,,,,,,,,,
1892,-0.165527344,0.203613281,0.946777344,14.62114504,15.30748092,0.443206107,21.17293758,218.3548959,14.62114504,15.30748092,0.443206107,,,,,,,,,
1726,0.318359375,-0.244628906,-1.008544922,15.05625954,14.89526718,-0.15221374,21.17978056,218.2497325,15.05625954,14.89526718,-0.15221374,,,,,,,,,
1099,0.21875,-0.20703125,0.951416016,-14.69183206,-15.25740458,-0.022442748,21.18109599,-218.4020868,14.69183206,15.25740458,0.022442748,,,,,,,,,
1692,-0.111328125,0.176269531,-1.038085938,14.91122137,15.05557252,-0.472824427,21.19524356,218.3566802,14.91122137,15.05557252,-0.472824427,,,,,,,,,
1679,-0.276367188,0.338378906,-0.932373047,14.88832061,15.10137405,-0.343053435,21.20922616,218.5612481,14.88832061,15.10137405,-0.343053435,,,,,,,,,
1612,-0.646240234,0.707763672,0.168457031,14.8959542,15.10137405,0.038625954,21.21184673,218.6884767,14.8959542,15.10137405,0.038625954,,,,,,,,,
1595,-0.585449219,0.627197266,0.409179688,15.08679389,14.92580153,-0.159847328,21.22301704,218.6933861,15.08679389,14.92580153,-0.159847328,,,,,,,,,
1590,-0.554931641,0.601074219,0.562744141,15.24709924,14.7578626,-0.404122137,21.22337999,218.5297412,15.24709924,14.7578626,-0.404122137,,,,,,,,,
1398,-0.298828125,0.375244141,0.840576172,-15.18038168,-14.84519084,-0.236183206,21.23392242,-218.8312133,15.18038168,14.84519084,0.236183206,,,,,,,,,
1685,-0.208984375,0.270019531,-1.029052734,14.91885496,15.11664122,-0.365954198,21.24191605,218.8878526,14.91885496,15.11664122,-0.365954198,,,,,,,,,
1344,-0.651611328,0.729980469,0.018798828,-14.64603053,-15.38717557,-0.633129771,21.25258186,-219.1637172,14.64603053,15.38717557,0.633129771,,,,,,,,,
1776,0.741455078,-0.663818359,-0.259521484,14.93412214,15.11664122,0.382137405,21.25292627,219.1393892,14.93412214,15.11664122,0.382137405,,,,,,,,,
1079,-0.040283203,0.166992188,1.040771484,-14.91320611,-15.15053435,-0.114045802,21.25924302,-219.1929224,14.91320611,15.15053435,0.114045802,,,,,,,,,
1582,-0.484863281,0.545654297,0.655761719,15.06389313,15.03267176,-0.259083969,21.28307358,219.3106596,15.06389313,15.03267176,-0.259083969,,,,,,,,,
1695,-0.082519531,0.150146484,-1.024169922,15.14022901,14.99450382,-0.136946565,21.30916313,219.5908449,15.14022901,14.99450382,-0.136946565,,,,,,,,,
1159,0.726074219,-0.637939453,0.170166016,-14.69946565,-15.41007634,-0.984274809,21.31932316,-219.7815827,14.69946565,15.41007634,0.984274809,,,,,,,,,
1115,0.392089844,-0.35546875,0.762939453,-14.99717557,-15.23450382,-0.686564885,21.3887062,-220.5265073,14.99717557,15.23450382,0.686564885,,,,,,,,,
1563,-0.282470703,0.341552734,0.875976563,15.24709924,15.00977099,-0.213282443,21.3965593,220.4493694,15.24709924,15.00977099,-0.213282443,,,,,,,,,
1814,0.678222656,-0.599609375,0.341552734,14.90358779,15.43725191,-0.243816794,21.45891707,221.1994883,14.90358779,15.43725191,-0.243816794,,,,,,,,,
1722,0.268798828,-0.204589844,-0.974365234,15.16312977,15.21587786,-0.213282443,21.48229348,221.3937486,15.16312977,15.21587786,-0.213282443,,,,,,,,,
1625,-0.639404297,0.696044922,-0.067626953,15.26236641,15.26167939,-0.213282443,21.58481354,222.4409189,15.26236641,15.26167939,-0.213282443,,,,,,,,,
1707,0.079101563,-0.008789063,-1.045166016,15.18603053,15.39908397,-0.220916031,21.62859483,222.9244735,15.18603053,15.39908397,-0.220916031,,,,,,,,,
1379,-0.495605469,0.556396484,0.592529297,-14.95137405,-15.70778626,-0.442290076,21.69040699,-223.6924778,14.95137405,15.70778626,0.442290076,,,,,,,,,
1285,-0.286621094,0.349121094,-0.908203125,-14.90557252,-15.93679389,-0.510992366,21.82701548,-225.0922633,14.90557252,15.93679389,0.510992366,,,,,,,,,
1070,-0.171142578,0.233154297,0.904541016,-15.19564885,-15.73832061,-0.175114504,21.877686,-225.6044794,15.19564885,15.73832061,0.175114504,,,,,,,,,
1118,0.427734375,-0.389892578,0.791748047,-15.03534351,-15.89862595,-0.404122137,21.88586705,-225.7081394,15.03534351,15.89862595,0.404122137,,,,,,,,,
1068,-0.184814453,0.189453125,0.909423828,-15.64603053,-15.34137405,0.282900763,21.91428899,-225.7481581,15.64603053,15.34137405,-0.282900763,,,,,,,,,
1156,0.727539063,-0.680664063,0.264648438,-14.97427481,-16.25740458,-0.144580153,22.10323536,-227.9067969,14.97427481,16.25740458,0.144580153,,,,,,,,,
1073,-0.138183594,0.150390625,0.918212891,-15.47045802,-15.85282443,0.450839695,22.15514319,-228.2924113,15.47045802,15.85282443,-0.450839695,,,,,,,,,
1721,0.255371094,-0.197265625,-1.061035156,15.68221374,15.7578626,-0.32778626,22.23397187,229.1099737,15.68221374,15.7578626,-0.32778626,,,,,,,,,
1266,-0.048828125,0.118896484,-1.077392578,-15.3559542,-16.08183206,-0.610229008,22.24416848,-229.3941065,15.3559542,16.08183206,0.610229008,,,,,,,,,
1647,-0.571533203,0.636230469,-0.523681641,15.86541985,15.67389313,-0.358320611,22.30495161,229.7775665,15.86541985,15.67389313,-0.358320611,,,,,,,,,
1134,0.584716797,-0.522949219,0.600097656,-15.82160305,-16.38717557,-1.114045802,22.80578314,-235.080123,15.82160305,16.38717557,1.114045802,,,,,,,,,
1589,-0.551269531,0.586181641,0.473876953,16.1478626,16.15480916,-0.266717557,22.84299594,235.3960649,16.1478626,16.15480916,-0.266717557,,,,,,,,,
1101,0.229248047,-0.124511719,0.887207031,-15.92083969,-16.60091603,-0.930839695,23.02020878,-237.3476605,15.92083969,16.60091603,0.930839695,,,,,,,,,
1701,-0.003417969,0.063720703,-1.135742188,16.24709924,16.4448855,-0.625496183,23.12560784,238.2006584,16.24709924,16.4448855,-0.625496183,,,,,,,,,
1585,-0.473632813,0.501464844,0.821533203,16.23946565,16.51358779,0.030992366,23.16073804,238.7856074,16.23946565,16.51358779,0.030992366,,,,,,,,,
1682,-0.240234375,0.316162109,-0.985351563,16.23183206,16.69679389,-0.404122137,23.2898822,240.0176994,16.23183206,16.69679389,-0.404122137,,,,,,,,,
1644,-0.593261719,0.642089844,-0.389892578,16.07152672,17.32274809,-0.220916031,23.63091992,243.5935184,16.07152672,17.32274809,-0.220916031,,,,,,,,,
1663,-0.437255859,0.531005859,-0.725585938,16.40740458,17.07847328,-0.495725191,23.68803323,244.1003164,16.40740458,17.07847328,-0.495725191,,,,,,,,,
1330,-0.647216797,0.726318359,-0.28125,-16.81396947,-17.47877863,-0.991908397,24.27346604,-250.2647964,16.81396947,17.47877863,0.991908397,,,,,,,,,
1082,-0.020507813,0.076416016,0.929199219,-17.24908397,-17.89099237,0.343969466,24.85431191,-256.1809266,17.24908397,17.89099237,-0.343969466,,,,,,,,,
1702,0.031494141,0.043945313,-0.897216797,17.43793893,17.97160305,-0.304885496,25.04302669,258.1322615,17.43793893,17.97160305,-0.304885496,,,,,,,,,
1570,-0.379150391,0.416992188,0.676269531,17.5219084,18.23877863,-0.434656489,25.29543923,260.7010424,17.5219084,18.23877863,-0.434656489,,,,,,,,,
1645,-0.594726563,0.655761719,-0.474121094,17.82725191,17.9410687,-0.480458015,25.29671316,260.6353423,17.82725191,17.9410687,-0.480458015,,,,,,,,,
1331,-0.633300781,0.666748047,-0.216308594,-17.72236641,-19.28030534,-0.39648855,26.19102229,-270.0695531,17.72236641,19.28030534,0.39648855,,,,,,,,,
1584,-0.510009766,0.517822266,0.474121094,19.11732824,19.14717557,-0.961374046,27.07417241,278.7217003,19.11732824,19.14717557,-0.961374046,,,,,,,,,
1077,-0.080810547,0.090576172,0.971191406,-19.72236641,-20.84519084,0.695114504,28.70499786,-295.7630302,19.72236641,20.84519084,-0.695114504,,,,,,,,,
